Time,header.seq,header.stamp.secs,header.stamp.nsecs,header.frame_id,orientation.x,orientation.y,orientation.z,orientation.w,orientation_covariance_0,orientation_covariance_1,orientation_covariance_2,orientation_covariance_3,orientation_covariance_4,orientation_covariance_5,orientation_covariance_6,orientation_covariance_7,orientation_covariance_8,angular_velocity.x,angular_velocity.y,angular_velocity.z,angular_velocity_covariance_0,angular_velocity_covariance_1,angular_velocity_covariance_2,angular_velocity_covariance_3,angular_velocity_covariance_4,angular_velocity_covariance_5,angular_velocity_covariance_6,angular_velocity_covariance_7,angular_velocity_covariance_8,linear_acceleration.x,linear_acceleration.y,linear_acceleration.z,linear_acceleration_covariance_0,linear_acceleration_covariance_1,linear_acceleration_covariance_2,linear_acceleration_covariance_3,linear_acceleration_covariance_4,linear_acceleration_covariance_5,linear_acceleration_covariance_6,linear_acceleration_covariance_7,linear_acceleration_covariance_8
1710444777.4052439,1719,1710444777,405151844,map,0.0005213544263875963,0.00012885142982428072,6.526125286063913e-08,0.9999998557934231,0.0,0.0,0.0,0.0,0.0,0.0,0.0,0.0,0.0,-0.0,0.0,-0.0,0.0,0.0,0.0,0.0,0.0,0.0,0.0,0.0,0.0,1.7012505262506624e-05,-0.006411758854621717,-9.810436516690755,0.0,0.0,0.0,0.0,0.0,0.0,0.0,0.0,0.0
1710444777.4225066,1720,1710444777,422311544,map,0.0005213544263875963,0.00012885142982428072,6.526125286063913e-08,0.9999998557934231,0.0,0.0,0.0,0.0,0.0,0.0,0.0,0.0,0.0,-0.0,0.0,-0.0,0.0,0.0,0.0,0.0,0.0,0.0,0.0,0.0,0.0,1.683494552625512e-05,-0.0064162624447973125,-9.81043605102949,0.0,0.0,0.0,0.0,0.0,0.0,0.0,0.0,0.0
1710444777.438657,1721,1710444777,438510180,map,0.0005213544263875963,0.00012885142982428072,6.526125286063913e-08,0.9999998557934231,0.0,0.0,0.0,0.0,0.0,0.0,0.0,0.0,0.0,-0.0,0.0,-0.0,0.0,0.0,0.0,0.0,0.0,0.0,0.0,0.0,0.0,1.782329710207694e-05,-0.006420746480837748,-9.81043698235202,0.0,0.0,0.0,0.0,0.0,0.0,0.0,0.0,0.0
1710444777.4552894,1722,1710444777,455190420,map,0.0005213544263875963,0.00012885142982428072,6.526125286063913e-08,0.9999998557934231,0.0,0.0,0.0,0.0,0.0,0.0,0.0,0.0,0.0,-0.0,0.0,-0.0,0.0,0.0,0.0,0.0,0.0,0.0,0.0,0.0,0.0,1.6311936359585785e-05,-0.00642512456075046,-9.810436516690755,0.0,0.0,0.0,0.0,0.0,0.0,0.0,0.0,0.0
1710444777.4724224,1723,1710444777,472279787,map,0.0005213544263875963,0.00012885142982428072,6.526125286063913e-08,0.9999998557934231,0.0,0.0,0.0,0.0,0.0,0.0,0.0,0.0,0.0,-0.0,0.0,-0.0,0.0,0.0,0.0,0.0,0.0,0.0,0.0,0.0,0.0,1.7304991284005732e-05,-0.0064294728547131036,-9.810436516690755,0.0,0.0,0.0,0.0,0.0,0.0,0.0,0.0,0.0
1710444777.4886003,1724,1710444777,488416672,map,0.0005213544263875963,0.00012885142982428072,6.526125286063913e-08,0.9999998557934231,0.0,0.0,0.0,0.0,0.0,0.0,0.0,0.0,0.0,-0.0,0.0,-0.0,0.0,0.0,0.0,0.0,0.0,0.0,0.0,0.0,0.0,1.5870469517488435e-05,-0.0064486136245501275,-9.81043605102949,0.0,0.0,0.0,0.0,0.0,0.0,0.0,0.0,0.0
1710444777.5057762,1725,1710444777,505665541,map,0.0005213544263875963,0.00012885142982428072,6.526125286063913e-08,0.9999998557934231,0.0,0.0,0.0,0.0,0.0,0.0,0.0,0.0,0.0,-0.0,0.0,-0.0,0.0,0.0,0.0,0.0,0.0,0.0,0.0,0.0,0.0,1.6859950856206457e-05,-0.0064381660320334206,-9.81043698235202,0.0,0.0,0.0,0.0,0.0,0.0,0.0,0.0,0.0
1710444777.5224154,1726,1710444777,522282362,map,0.0005213544263875963,0.00012885142982428072,6.526125286063913e-08,0.9999998557934231,0.0,0.0,0.0,0.0,0.0,0.0,0.0,0.0,0.0,-0.0,0.0,-0.0,0.0,0.0,0.0,0.0,0.0,0.0,0.0,0.0,0.0,1.644151980850831e-05,-0.006441919061742027,-9.810436516690755,0.0,0.0,0.0,0.0,0.0,0.0,0.0,0.0,0.0
1710444777.5386133,1727,1710444777,538476467,map,0.0005213544263875963,0.00012885142982428072,6.526125286063913e-08,0.9999998557934231,0.0,0.0,0.0,0.0,0.0,0.0,0.0,0.0,0.0,-0.0,0.0,-0.0,0.0,0.0,0.0,0.0,0.0,0.0,0.0,0.0,0.0,1.635617430412381e-05,-0.006445979728018896,-9.810436516690755,0.0,0.0,0.0,0.0,0.0,0.0,0.0,0.0,0.0
1710444777.5549762,1728,1710444777,554864407,map,0.0005213544263875963,0.00012885142982428072,6.526125286063913e-08,0.9999998557934231,0.0,0.0,0.0,0.0,0.0,0.0,0.0,0.0,0.0,-0.0,0.0,-0.0,0.0,0.0,0.0,0.0,0.0,0.0,0.0,0.0,0.0,1.657854708041278e-05,-0.006450022204402594,-9.810436516690755,0.0,0.0,0.0,0.0,0.0,0.0,0.0,0.0,0.0
1710444777.5720677,1729,1710444777,571896315,map,0.0005213544263875963,0.00012885142982428072,6.526125286063913e-08,0.9999998557934231,0.0,0.0,0.0,0.0,0.0,0.0,0.0,0.0,0.0,-0.0,0.0,-0.0,0.0,0.0,0.0,0.0,0.0,0.0,0.0,0.0,0.0,1.540159659928533e-05,-0.006454048309882438,-9.810436516690755,0.0,0.0,0.0,0.0,0.0,0.0,0.0,0.0,0.0
1710444777.5882065,1730,1710444777,588083506,map,0.0005213544263875963,0.00012885142982428072,6.526125286063913e-08,0.9999998557934231,0.0,0.0,0.0,0.0,0.0,0.0,0.0,0.0,0.0,-0.0,0.0,-0.0,0.0,0.0,0.0,0.0,0.0,0.0,0.0,0.0,0.0,1.6655797727064617e-05,-0.006457968459234558,-9.81043698235202,0.0,0.0,0.0,0.0,0.0,0.0,0.0,0.0,0.0
1710444777.6047826,1731,1710444777,604686737,map,0.0005213544263875963,0.00012885142982428072,6.526125286063913e-08,0.9999998557934231,0.0,0.0,0.0,0.0,0.0,0.0,0.0,0.0,0.0,-0.0,0.0,-0.0,0.0,0.0,0.0,0.0,0.0,0.0,0.0,0.0,0.0,1.593666101107266e-05,-0.00646186132374692,-9.81043698235202,0.0,0.0,0.0,0.0,0.0,0.0,0.0,0.0,0.0
1710444777.6219592,1732,1710444777,621787548,map,0.0005213544263875963,0.00012885142982428072,6.526125286063913e-08,0.9999998557934231,0.0,0.0,0.0,0.0,0.0,0.0,0.0,0.0,0.0,-0.0,0.0,-0.0,0.0,0.0,0.0,0.0,0.0,0.0,0.0,0.0,0.0,1.53578169547901e-05,-0.0064657339520031295,-9.810436516690755,0.0,0.0,0.0,0.0,0.0,0.0,0.0,0.0,0.0
1710444777.63774,1733,1710444777,637619972,map,0.0005213544263875963,0.00012885142982428072,6.526125286063913e-08,0.9999998557934231,0.0,0.0,0.0,0.0,0.0,0.0,0.0,0.0,0.0,-0.0,0.0,-0.0,0.0,0.0,0.0,0.0,0.0,0.0,0.0,0.0,0.0,1.6217620253588393e-05,-0.0064695019883736025,-9.810436516690755,0.0,0.0,0.0,0.0,0.0,0.0,0.0,0.0,0.0
1710444777.6547408,1734,1710444777,654632330,map,0.0005213544263875963,0.00012885142982428072,6.526125286063913e-08,0.9999998557934231,0.0,0.0,0.0,0.0,0.0,0.0,0.0,0.0,0.0,-0.0,0.0,-0.0,0.0,0.0,0.0,0.0,0.0,0.0,0.0,0.0,0.0,1.513271924723892e-05,-0.006473242967277983,-9.81043698235202,0.0,0.0,0.0,0.0,0.0,0.0,0.0,0.0,0.0
1710444777.6716158,1735,1710444777,671483040,map,0.0005209706904765387,0.00012923927437351787,6.56632456527058e-08,0.9999998559433623,0.0,0.0,0.0,0.0,0.0,0.0,0.0,0.0,0.0,-7.674719208726655e-05,7.756894171072573e-05,3.009843219268532e-08,0.0,0.0,0.0,0.0,0.0,0.0,0.0,0.0,0.0,1.5981319952161626e-05,-0.006476963482552545,-9.81043698235202,0.0,0.0,0.0,0.0,0.0,0.0,0.0,0.0,0.0
1710444777.6881795,1736,1710444777,688060284,map,0.0005209706904765387,0.00012923927437351787,6.56632456527058e-08,0.9999998559433623,0.0,0.0,0.0,0.0,0.0,0.0,0.0,0.0,0.0,-0.0,0.0,-0.0,0.0,0.0,0.0,0.0,0.0,0.0,0.0,0.0,0.0,-0.00030739744577451875,-0.006798782483147428,-9.810436516690755,0.0,0.0,0.0,0.0,0.0,0.0,0.0,0.0,0.0
1710444777.7046113,1737,1710444777,704504251,map,0.0005209706904765387,0.00012923927437351787,6.56632456527058e-08,0.9999998559433623,0.0,0.0,0.0,0.0,0.0,0.0,0.0,0.0,0.0,-0.0,0.0,-0.0,0.0,0.0,0.0,0.0,0.0,0.0,0.0,0.0,0.0,0.00034123313042022435,-0.005931019532234528,-9.810437448013285,0.0,0.0,0.0,0.0,0.0,0.0,0.0,0.0,0.0
1710444777.7211275,1738,1710444777,721020222,map,0.0005209706904765387,0.00012923927437351787,6.56632456527058e-08,0.9999998559433623,0.0,0.0,0.0,0.0,0.0,0.0,0.0,0.0,0.0,-0.0,0.0,-0.0,0.0,0.0,0.0,0.0,0.0,0.0,0.0,0.0,0.0,2.8607488351669896e-05,-0.006388358693924925,-9.810437448013285,0.0,0.0,0.0,0.0,0.0,0.0,0.0,0.0,0.0
1710444777.7382252,1739,1710444777,738095284,map,0.0005209706904765387,0.00012923927437351787,6.56632456527058e-08,0.9999998559433623,0.0,0.0,0.0,0.0,0.0,0.0,0.0,0.0,0.0,-0.0,0.0,-0.0,0.0,0.0,0.0,0.0,0.0,0.0,0.0,0.0,0.0,7.959571734466476e-06,-0.006422115725046231,-9.81043698235202,0.0,0.0,0.0,0.0,0.0,0.0,0.0,0.0,0.0
1710444777.7544897,1740,1710444777,754367352,map,0.0005209706904765387,0.00012923927437351787,6.56632456527058e-08,0.9999998559433623,0.0,0.0,0.0,0.0,0.0,0.0,0.0,0.0,0.0,-0.0,0.0,-0.0,0.0,0.0,0.0,0.0,0.0,0.0,0.0,0.0,0.0,1.8533179443464394e-05,-0.006442937013638636,-9.810436516690755,0.0,0.0,0.0,0.0,0.0,0.0,0.0,0.0,0.0
1710444777.771226,1741,1710444777,771081209,map,0.0005209706904765387,0.00012923927437351787,6.56632456527058e-08,0.9999998559433623,0.0,0.0,0.0,0.0,0.0,0.0,0.0,0.0,0.0,-0.0,0.0,-0.0,0.0,0.0,0.0,0.0,0.0,0.0,0.0,0.0,0.0,1.3560536937633987e-05,-0.006477737689880657,-9.81043698235202,0.0,0.0,0.0,0.0,0.0,0.0,0.0,0.0,0.0
1710444777.7881386,1742,1710444777,787990332,map,0.0005209706904765387,0.00012923927437351787,6.56632456527058e-08,0.9999998559433623,0.0,0.0,0.0,0.0,0.0,0.0,0.0,0.0,0.0,-0.0,0.0,-0.0,0.0,0.0,0.0,0.0,0.0,0.0,0.0,0.0,0.0,1.4628769056283467e-05,-0.0064825991662044,-9.810436516690755,0.0,0.0,0.0,0.0,0.0,0.0,0.0,0.0,0.0
1710444777.8047235,1743,1710444777,804580212,map,0.0005209706904765387,0.00012923927437351787,6.56632456527058e-08,0.9999998559433623,0.0,0.0,0.0,0.0,0.0,0.0,0.0,0.0,0.0,-0.0,0.0,-0.0,0.0,0.0,0.0,0.0,0.0,0.0,0.0,0.0,0.0,1.5104268229272016e-05,-0.006486519088182856,-9.81043605102949,0.0,0.0,0.0,0.0,0.0,0.0,0.0,0.0,0.0
1710444777.8222017,1744,1710444777,821951628,map,0.0005209706904765387,0.00012923927437351787,6.56632456527058e-08,0.9999998559433623,0.0,0.0,0.0,0.0,0.0,0.0,0.0,0.0,0.0,-0.0,0.0,-0.0,0.0,0.0,0.0,0.0,0.0,0.0,0.0,0.0,0.0,1.5964124818772958e-05,-0.006490332371912593,-9.81043605102949,0.0,0.0,0.0,0.0,0.0,0.0,0.0,0.0,0.0
1710444777.8381667,1745,1710444777,838010550,map,0.0005209706904765387,0.00012923927437351787,6.56632456527058e-08,0.9999998559433623,0.0,0.0,0.0,0.0,0.0,0.0,0.0,0.0,0.0,-0.0,0.0,-0.0,0.0,0.0,0.0,0.0,0.0,0.0,0.0,0.0,0.0,1.4551033020148317e-05,-0.006508935403032735,-9.810436516690755,0.0,0.0,0.0,0.0,0.0,0.0,0.0,0.0,0.0
1710444777.8554618,1746,1710444777,855326653,map,0.0005209706904765387,0.00012923927437351787,6.56632456527058e-08,0.9999998559433623,0.0,0.0,0.0,0.0,0.0,0.0,0.0,0.0,0.0,-0.0,0.0,-0.0,0.0,0.0,0.0,0.0,0.0,0.0,0.0,0.0,0.0,1.4642849348102195e-05,-0.006512758236456388,-9.81043605102949,0.0,0.0,0.0,0.0,0.0,0.0,0.0,0.0,0.0
1710444777.8720763,1747,1710444777,871986866,map,0.0005209706904765387,0.00012923927437351787,6.56632456527058e-08,0.9999998559433623,0.0,0.0,0.0,0.0,0.0,0.0,0.0,0.0,0.0,-0.0,0.0,-0.0,0.0,0.0,0.0,0.0,0.0,0.0,0.0,0.0,0.0,1.4476308352802127e-05,-0.0065309212995354445,-9.810436516690755,0.0,0.0,0.0,0.0,0.0,0.0,0.0,0.0,0.0
1710444777.8879328,1748,1710444777,887802839,map,0.0005209706904765387,0.00012923927437351787,6.56632456527058e-08,0.9999998559433623,0.0,0.0,0.0,0.0,0.0,0.0,0.0,0.0,0.0,-0.0,0.0,-0.0,0.0,0.0,0.0,0.0,0.0,0.0,0.0,0.0,0.0,1.4686989593018693e-05,-0.0065195280599474855,-9.81043605102949,0.0,0.0,0.0,0.0,0.0,0.0,0.0,0.0,0.0
1710444777.9052615,1749,1710444777,905130625,map,0.0005209706904765387,0.00012923927437351787,6.56632456527058e-08,0.9999998559433623,0.0,0.0,0.0,0.0,0.0,0.0,0.0,0.0,0.0,-0.0,0.0,-0.0,0.0,0.0,0.0,0.0,0.0,0.0,0.0,0.0,0.0,1.467569418450266e-05,-0.006522329758243223,-9.81043605102949,0.0,0.0,0.0,0.0,0.0,0.0,0.0,0.0,0.0
1710444777.9212804,1750,1710444777,921190023,map,0.0005209706904765387,0.00012923927437351787,6.56632456527058e-08,0.9999998559433623,0.0,0.0,0.0,0.0,0.0,0.0,0.0,0.0,0.0,-0.0,0.0,-0.0,0.0,0.0,0.0,0.0,0.0,0.0,0.0,0.0,0.0,1.4722699248775829e-05,-0.006540314560369199,-9.81043605102949,0.0,0.0,0.0,0.0,0.0,0.0,0.0,0.0,0.0
1710444777.9377265,1751,1710444777,937528133,map,0.0005209706904765387,0.00012923927437351787,6.56632456527058e-08,0.9999998559433623,0.0,0.0,0.0,0.0,0.0,0.0,0.0,0.0,0.0,-0.0,0.0,-0.0,0.0,0.0,0.0,0.0,0.0,0.0,0.0,0.0,0.0,1.4536931412048528e-05,-0.006543582829424786,-9.81043605102949,0.0,0.0,0.0,0.0,0.0,0.0,0.0,0.0,0.0
1710444777.954318,1752,1710444777,954217434,map,0.0005209706904765387,0.00012923927437351787,6.56632456527058e-08,0.9999998559433623,0.0,0.0,0.0,0.0,0.0,0.0,0.0,0.0,0.0,-0.0,0.0,-0.0,0.0,0.0,0.0,0.0,0.0,0.0,0.0,0.0,0.0,1.4731082320391994e-05,-0.006546402717613696,-9.81043605102949,0.0,0.0,0.0,0.0,0.0,0.0,0.0,0.0,0.0
1710444777.971409,1753,1710444777,971203327,map,0.0005205832603511846,0.00012962341586477658,6.602067709296402e-08,0.9999998560954071,0.0,0.0,0.0,0.0,0.0,0.0,0.0,0.0,0.0,-7.748603395290029e-05,7.682832557601289e-05,2.1476512125456238e-08,0.0,0.0,0.0,0.0,0.0,0.0,0.0,0.0,0.0,1.4667229400475765e-05,-0.006549104598870655,-9.81043605102949,0.0,0.0,0.0,0.0,0.0,0.0,0.0,0.0,0.0
1710444777.987906,1754,1710444777,987693310,map,0.0005205832603511846,0.00012962341586477658,6.602067709296402e-08,0.9999998560954071,0.0,0.0,0.0,0.0,0.0,0.0,0.0,0.0,0.0,-0.0,0.0,-0.0,0.0,0.0,0.0,0.0,0.0,0.0,0.0,0.0,0.0,-0.00030817998066309766,-0.006862577166983802,-9.810436516690755,0.0,0.0,0.0,0.0,0.0,0.0,0.0,0.0,0.0
1710444778.0047634,1755,1710444778,4529953,map,0.0005205832603511846,0.00012962341586477658,6.602067709296402e-08,0.9999998560954071,0.0,0.0,0.0,0.0,0.0,0.0,0.0,0.0,0.0,-0.0,0.0,-0.0,0.0,0.0,0.0,0.0,0.0,0.0,0.0,0.0,0.0,0.0003396912456514332,-0.005993828778608336,-9.81043698235202,0.0,0.0,0.0,0.0,0.0,0.0,0.0,0.0,0.0
1710444778.0217597,1756,1710444778,21619558,map,0.0005205832603511846,0.00012962341586477658,6.602067709296402e-08,0.9999998560954071,0.0,0.0,0.0,0.0,0.0,0.0,0.0,0.0,0.0,-0.0,0.0,-0.0,0.0,0.0,0.0,0.0,0.0,0.0,0.0,0.0,0.0,2.8549162565796935e-05,-0.006457805659690673,-9.810436516690755,0.0,0.0,0.0,0.0,0.0,0.0,0.0,0.0,0.0
1710444778.0378113,1757,1710444778,37613630,map,0.0005205832603511846,0.00012962341586477658,6.602067709296402e-08,0.9999998560954071,0.0,0.0,0.0,0.0,0.0,0.0,0.0,0.0,0.0,-0.0,0.0,-0.0,0.0,0.0,0.0,0.0,0.0,0.0,0.0,0.0,0.0,4.424772365951654e-06,-0.006490813721960644,-9.81043605102949,0.0,0.0,0.0,0.0,0.0,0.0,0.0,0.0,0.0
1710444778.0548122,1758,1710444778,54662466,map,0.0005205832603511846,0.00012962341586477658,6.602067709296402e-08,0.9999998560954071,0.0,0.0,0.0,0.0,0.0,0.0,0.0,0.0,0.0,-0.0,0.0,-0.0,0.0,0.0,0.0,0.0,0.0,0.0,0.0,0.0,0.0,1.8629755963432556e-05,-0.006510705507011986,-9.81043605102949,0.0,0.0,0.0,0.0,0.0,0.0,0.0,0.0,0.0
1710444778.0712478,1759,1710444778,71102619,map,0.0005205832603511846,0.00012962341586477658,6.602067709296402e-08,0.9999998560954071,0.0,0.0,0.0,0.0,0.0,0.0,0.0,0.0,0.0,-0.0,0.0,-0.0,0.0,0.0,0.0,0.0,0.0,0.0,0.0,0.0,0.0,1.35598175131482e-05,-0.006544588957890834,-9.81043605102949,0.0,0.0,0.0,0.0,0.0,0.0,0.0,0.0,0.0
1710444778.087587,1760,1710444778,87341547,map,0.0005205832603511846,0.00012962341586477658,6.602067709296402e-08,0.9999998560954071,0.0,0.0,0.0,0.0,0.0,0.0,0.0,0.0,0.0,-0.0,0.0,-0.0,0.0,0.0,0.0,0.0,0.0,0.0,0.0,0.0,0.0,1.309042056970236e-05,-0.00654853684683004,-9.81043605102949,0.0,0.0,0.0,0.0,0.0,0.0,0.0,0.0,0.0
1710444778.104709,1761,1710444778,104533434,map,0.0005205832603511846,0.00012962341586477658,6.602067709296402e-08,0.9999998560954071,0.0,0.0,0.0,0.0,0.0,0.0,0.0,0.0,0.0,-0.0,0.0,-0.0,0.0,0.0,0.0,0.0,0.0,0.0,0.0,0.0,0.0,1.4747059317135904e-05,-0.00655161139352335,-9.81043605102949,0.0,0.0,0.0,0.0,0.0,0.0,0.0,0.0,0.0
1710444778.1214902,1762,1710444778,121403456,map,0.0005205832603511846,0.00012962341586477658,6.602067709296402e-08,0.9999998560954071,0.0,0.0,0.0,0.0,0.0,0.0,0.0,0.0,0.0,-0.0,0.0,-0.0,0.0,0.0,0.0,0.0,0.0,0.0,0.0,0.0,0.0,1.4560896241030608e-05,-0.0065545915801458335,-9.81043605102949,0.0,0.0,0.0,0.0,0.0,0.0,0.0,0.0,0.0
1710444778.1379435,1763,1710444778,137811422,map,0.0005205832603511846,0.00012962341586477658,6.602067709296402e-08,0.9999998560954071,0.0,0.0,0.0,0.0,0.0,0.0,0.0,0.0,0.0,-0.0,0.0,-0.0,0.0,0.0,0.0,0.0,0.0,0.0,0.0,0.0,0.0,1.2986553437522374e-05,-0.006572283979739078,-9.81043605102949,0.0,0.0,0.0,0.0,0.0,0.0,0.0,0.0,0.0
1710444778.154734,1764,1710444778,154510736,map,0.0005205832603511846,0.00012962341586477658,6.602067709296402e-08,0.9999998560954071,0.0,0.0,0.0,0.0,0.0,0.0,0.0,0.0,0.0,-0.0,0.0,-0.0,0.0,0.0,0.0,0.0,0.0,0.0,0.0,0.0,0.0,1.4827338207965876e-05,-0.006575244384852737,-9.81043605102949,0.0,0.0,0.0,0.0,0.0,0.0,0.0,0.0,0.0
1710444778.171672,1765,1710444778,171519279,map,0.0005205832603511846,0.00012962341586477658,6.602067709296402e-08,0.9999998560954071,0.0,0.0,0.0,0.0,0.0,0.0,0.0,0.0,0.0,-0.0,0.0,-0.0,0.0,0.0,0.0,0.0,0.0,0.0,0.0,0.0,0.0,1.325835467278756e-05,-0.006592567529614601,-9.81043605102949,0.0,0.0,0.0,0.0,0.0,0.0,0.0,0.0,0.0
1710444778.1877797,1766,1710444778,187602282,map,0.0005205832603511846,0.00012962341586477658,6.602067709296402e-08,0.9999998560954071,0.0,0.0,0.0,0.0,0.0,0.0,0.0,0.0,0.0,-0.0,0.0,-0.0,0.0,0.0,0.0,0.0,0.0,0.0,0.0,0.0,0.0,1.4682223183755766e-05,-0.006580303903638386,-9.81043605102949,0.0,0.0,0.0,0.0,0.0,0.0,0.0,0.0,0.0
1710444778.204755,1767,1710444778,204582214,map,0.0005205832603511846,0.00012962341586477658,6.602067709296402e-08,0.9999998560954071,0.0,0.0,0.0,0.0,0.0,0.0,0.0,0.0,0.0,-0.0,0.0,-0.0,0.0,0.0,0.0,0.0,0.0,0.0,0.0,0.0,0.0,1.2988800972906673e-05,-0.0065971097733131855,-9.81043605102949,0.0,0.0,0.0,0.0,0.0,0.0,0.0,0.0,0.0
1710444778.2214205,1768,1710444778,221326590,map,0.0005205832603511846,0.00012962341586477658,6.602067709296402e-08,0.9999998560954071,0.0,0.0,0.0,0.0,0.0,0.0,0.0,0.0,0.0,-0.0,0.0,-0.0,0.0,0.0,0.0,0.0,0.0,0.0,0.0,0.0,0.0,1.506045616626601e-05,-0.006599602243425009,-9.81043605102949,0.0,0.0,0.0,0.0,0.0,0.0,0.0,0.0,0.0
1710444778.2378476,1769,1710444778,237722158,map,0.0005205832603511846,0.00012962341586477658,6.602067709296402e-08,0.9999998560954071,0.0,0.0,0.0,0.0,0.0,0.0,0.0,0.0,0.0,-0.0,0.0,-0.0,0.0,0.0,0.0,0.0,0.0,0.0,0.0,0.0,0.0,1.3210712340528524e-05,-0.006586866362347329,-9.81043605102949,0.0,0.0,0.0,0.0,0.0,0.0,0.0,0.0,0.0
1710444778.2550306,1770,1710444778,254763365,map,0.0005205832603511846,0.00012962341586477658,6.602067709296402e-08,0.9999998560954071,0.0,0.0,0.0,0.0,0.0,0.0,0.0,0.0,0.0,-0.0,0.0,-0.0,0.0,0.0,0.0,0.0,0.0,0.0,0.0,0.0,0.0,1.4992923523331739e-05,-0.0066035853752822345,-9.81043605102949,0.0,0.0,0.0,0.0,0.0,0.0,0.0,0.0,0.0
1710444778.2721834,1771,1710444778,272035837,map,0.0005201958612318891,0.00013000394167799367,6.646360499984575e-08,0.999999856247608,0.0,0.0,0.0,0.0,0.0,0.0,0.0,0.0,0.0,-7.747983502915591e-05,7.61051989621354e-05,3.8952776582411926e-08,0.0,0.0,0.0,0.0,0.0,0.0,0.0,0.0,0.0,1.3038444371050247e-05,-0.006605953017252168,-9.81043605102949,0.0,0.0,0.0,0.0,0.0,0.0,0.0,0.0,0.0
1710444778.2884593,1772,1710444778,288236141,map,0.0005201958612318891,0.00013000394167799367,6.646360499984575e-08,0.999999856247608,0.0,0.0,0.0,0.0,0.0,0.0,0.0,0.0,0.0,-0.0,0.0,-0.0,0.0,0.0,0.0,0.0,0.0,0.0,0.0,0.0,0.0,-0.0003074106369997816,-0.006926034655675509,-9.810370858452362,0.0,0.0,0.0,0.0,0.0,0.0,0.0,0.0,0.0
1710444778.3048913,1773,1710444778,304774761,map,0.0005201958612318891,0.00013000394167799367,6.646360499984575e-08,0.999999856247608,0.0,0.0,0.0,0.0,0.0,0.0,0.0,0.0,0.0,-0.0,0.0,-0.0,0.0,0.0,0.0,0.0,0.0,0.0,0.0,0.0,0.0,0.0003553001564067059,-0.0061750774216423054,-9.8105068315418,0.0,0.0,0.0,0.0,0.0,0.0,0.0,0.0,0.0
1710444778.3215673,1774,1710444778,321461916,map,0.0005201958612318891,0.00013000394167799367,6.646360499984575e-08,0.999999856247608,0.0,0.0,0.0,0.0,0.0,0.0,0.0,0.0,0.0,-0.0,0.0,-0.0,0.0,0.0,0.0,0.0,0.0,0.0,0.0,0.0,0.0,-7.982729431347991e-06,-0.006409315269847793,-9.810439310658346,0.0,0.0,0.0,0.0,0.0,0.0,0.0,0.0,0.0
1710444778.3385854,1775,1710444778,338387012,map,0.0005201958612318891,0.00013000394167799367,6.646360499984575e-08,0.999999856247608,0.0,0.0,0.0,0.0,0.0,0.0,0.0,0.0,0.0,-0.0,0.0,-0.0,0.0,0.0,0.0,0.0,0.0,0.0,0.0,0.0,0.0,3.1469023224700984e-05,-0.0065409157363385175,-9.810436516690755,0.0,0.0,0.0,0.0,0.0,0.0,0.0,0.0,0.0
1710444778.3552735,1776,1710444778,355082512,map,0.0005201958612318891,0.00013000394167799367,6.646360499984575e-08,0.999999856247608,0.0,0.0,0.0,0.0,0.0,0.0,0.0,0.0,0.0,-0.0,0.0,-0.0,0.0,0.0,0.0,0.0,0.0,0.0,0.0,0.0,0.0,1.1311152365953038e-05,-0.0065629896264494435,-9.810436516690755,0.0,0.0,0.0,0.0,0.0,0.0,0.0,0.0,0.0
1710444778.3720727,1777,1710444778,371924400,map,0.0005201958612318891,0.00013000394167799367,6.646360499984575e-08,0.999999856247608,0.0,0.0,0.0,0.0,0.0,0.0,0.0,0.0,0.0,-0.0,0.0,-0.0,0.0,0.0,0.0,0.0,0.0,0.0,0.0,0.0,0.0,1.3715007144694451e-05,-0.006566658527902132,-9.810436516690755,0.0,0.0,0.0,0.0,0.0,0.0,0.0,0.0,0.0
1710444778.388401,1778,1710444778,388210058,map,0.0005201958612318891,0.00013000394167799367,6.646360499984575e-08,0.999999856247608,0.0,0.0,0.0,0.0,0.0,0.0,0.0,0.0,0.0,-0.0,0.0,-0.0,0.0,0.0,0.0,0.0,0.0,0.0,0.0,0.0,0.0,1.3015423231594275e-05,-0.006599381008849311,-9.81043605102949,0.0,0.0,0.0,0.0,0.0,0.0,0.0,0.0,0.0
1710444778.4051676,1779,1710444778,404937506,map,0.0005201958612318891,0.00013000394167799367,6.646360499984575e-08,0.999999856247608,0.0,0.0,0.0,0.0,0.0,0.0,0.0,0.0,0.0,-0.0,0.0,-0.0,0.0,0.0,0.0,0.0,0.0,0.0,0.0,0.0,0.0,1.4093502583915253e-05,-0.006602578564695193,-9.81043605102949,0.0,0.0,0.0,0.0,0.0,0.0,0.0,0.0,0.0
1710444778.4217,1780,1710444778,421625137,map,0.0005201958612318891,0.00013000394167799367,6.646360499984575e-08,0.999999856247608,0.0,0.0,0.0,0.0,0.0,0.0,0.0,0.0,0.0,-0.0,0.0,-0.0,0.0,0.0,0.0,0.0,0.0,0.0,0.0,0.0,0.0,1.3346770165733938e-05,-0.00660488959062263,-9.81043605102949,0.0,0.0,0.0,0.0,0.0,0.0,0.0,0.0,0.0
1710444778.438291,1781,1710444778,438116074,map,0.0005201958612318891,0.00013000394167799367,6.646360499984575e-08,0.999999856247608,0.0,0.0,0.0,0.0,0.0,0.0,0.0,0.0,0.0,-0.0,0.0,-0.0,0.0,0.0,0.0,0.0,0.0,0.0,0.0,0.0,0.0,1.3951908298793606e-05,-0.0066071758328206205,-9.81043605102949,0.0,0.0,0.0,0.0,0.0,0.0,0.0,0.0,0.0
1710444778.454764,1782,1710444778,454597950,map,0.0005201958612318891,0.00013000394167799367,6.646360499984575e-08,0.999999856247608,0.0,0.0,0.0,0.0,0.0,0.0,0.0,0.0,0.0,-0.0,0.0,-0.0,0.0,0.0,0.0,0.0,0.0,0.0,0.0,0.0,0.0,1.4236168456249369e-05,-0.006624254778266657,-9.81043605102949,0.0,0.0,0.0,0.0,0.0,0.0,0.0,0.0,0.0
1710444778.4731953,1783,1710444778,473104715,map,0.0005201958612318891,0.00013000394167799367,6.646360499984575e-08,0.999999856247608,0.0,0.0,0.0,0.0,0.0,0.0,0.0,0.0,0.0,-0.0,0.0,-0.0,0.0,0.0,0.0,0.0,0.0,0.0,0.0,0.0,0.0,1.2540354381029632e-05,-0.006626555117631857,-9.81043605102949,0.0,0.0,0.0,0.0,0.0,0.0,0.0,0.0,0.0
1710444778.4883347,1784,1710444778,488219023,map,0.0005201958612318891,0.00013000394167799367,6.646360499984575e-08,0.999999856247608,0.0,0.0,0.0,0.0,0.0,0.0,0.0,0.0,0.0,-0.0,0.0,-0.0,0.0,0.0,0.0,0.0,0.0,0.0,0.0,0.0,0.0,1.498874375588716e-05,-0.006628381837653603,-9.81043605102949,0.0,0.0,0.0,0.0,0.0,0.0,0.0,0.0,0.0
1710444778.505242,1785,1710444778,505056620,map,0.0005201958612318891,0.00013000394167799367,6.646360499984575e-08,0.999999856247608,0.0,0.0,0.0,0.0,0.0,0.0,0.0,0.0,0.0,-0.0,0.0,-0.0,0.0,0.0,0.0,0.0,0.0,0.0,0.0,0.0,0.0,1.3340128811916077e-05,-0.006630141937191608,-9.81043605102949,0.0,0.0,0.0,0.0,0.0,0.0,0.0,0.0,0.0
1710444778.5215032,1786,1710444778,521383047,map,0.0005201958612318891,0.00013000394167799367,6.646360499984575e-08,0.999999856247608,0.0,0.0,0.0,0.0,0.0,0.0,0.0,0.0,0.0,-0.0,0.0,-0.0,0.0,0.0,0.0,0.0,0.0,0.0,0.0,0.0,0.0,1.3923516788777996e-05,-0.00664669132937269,-9.81043605102949,0.0,0.0,0.0,0.0,0.0,0.0,0.0,0.0,0.0
1710444778.5381527,1787,1710444778,538025379,map,0.0005201958612318891,0.00013000394167799367,6.646360499984575e-08,0.999999856247608,0.0,0.0,0.0,0.0,0.0,0.0,0.0,0.0,0.0,-0.0,0.0,-0.0,0.0,0.0,0.0,0.0,0.0,0.0,0.0,0.0,0.0,1.3517927024061945e-05,-0.006648510773437168,-9.81043605102949,0.0,0.0,0.0,0.0,0.0,0.0,0.0,0.0,0.0
1710444778.555686,1788,1710444778,555583715,map,0.0005201958612318891,0.00013000394167799367,6.646360499984575e-08,0.999999856247608,0.0,0.0,0.0,0.0,0.0,0.0,0.0,0.0,0.0,-0.0,0.0,-0.0,0.0,0.0,0.0,0.0,0.0,0.0,0.0,0.0,0.0,1.3788105557431413e-05,-0.006649849322200925,-9.81043605102949,0.0,0.0,0.0,0.0,0.0,0.0,0.0,0.0,0.0
1710444778.5721374,1789,1710444778,571971655,map,0.0005201958612318891,0.00013000394167799367,6.646360499984575e-08,0.999999856247608,0.0,0.0,0.0,0.0,0.0,0.0,0.0,0.0,0.0,-0.0,0.0,-0.0,0.0,0.0,0.0,0.0,0.0,0.0,0.0,0.0,0.0,1.3607318180956023e-05,-0.006636355832072652,-9.81043605102949,0.0,0.0,0.0,0.0,0.0,0.0,0.0,0.0,0.0
1710444778.5882273,1790,1710444778,588015318,map,0.0005201958612318891,0.00013000394167799367,6.646360499984575e-08,0.999999856247608,0.0,0.0,0.0,0.0,0.0,0.0,0.0,0.0,0.0,-0.0,0.0,-0.0,0.0,0.0,0.0,0.0,0.0,0.0,0.0,0.0,0.0,1.4342387040683824e-05,-0.006652388176540335,-9.81043605102949,0.0,0.0,0.0,0.0,0.0,0.0,0.0,0.0,0.0
1710444778.6044736,1791,1710444778,604349852,map,0.0005201958612318891,0.00013000394167799367,6.646360499984575e-08,0.999999856247608,0.0,0.0,0.0,0.0,0.0,0.0,0.0,0.0,0.0,-0.0,0.0,-0.0,0.0,0.0,0.0,0.0,0.0,0.0,0.0,0.0,0.0,1.335397506873233e-05,-0.006654117125886284,-9.81043605102949,0.0,0.0,0.0,0.0,0.0,0.0,0.0,0.0,0.0
1710444778.6210506,1792,1710444778,620949984,map,0.0005198046748109617,0.00013038098863797737,6.686377873143537e-08,0.9999998564019364,0.0,0.0,0.0,0.0,0.0,0.0,0.0,0.0,0.0,-7.823729439931296e-05,7.540942396548625e-05,3.066542296280383e-08,0.0,0.0,0.0,0.0,0.0,0.0,0.0,0.0,0.0,1.4536852808262118e-05,-0.006655430208799601,-9.81043605102949,0.0,0.0,0.0,0.0,0.0,0.0,0.0,0.0,0.0
1710444778.638031,1793,1710444778,637772322,map,0.0005198046748109617,0.00013038098863797737,6.686377873143537e-08,0.9999998564019364,0.0,0.0,0.0,0.0,0.0,0.0,0.0,0.0,0.0,-0.0,0.0,-0.0,0.0,0.0,0.0,0.0,0.0,0.0,0.0,0.0,0.0,-0.00027723993161104935,-0.006989730431967762,-9.810435585368225,0.0,0.0,0.0,0.0,0.0,0.0,0.0,0.0,0.0
1710444778.6545167,1794,1710444778,654402733,map,0.0005198046748109617,0.00013038098863797737,6.686377873143537e-08,0.9999998564019364,0.0,0.0,0.0,0.0,0.0,0.0,0.0,0.0,0.0,-0.0,0.0,-0.0,0.0,0.0,0.0,0.0,0.0,0.0,0.0,0.0,0.0,0.00032236037373768506,-0.006208547279825167,-9.81043698235202,0.0,0.0,0.0,0.0,0.0,0.0,0.0,0.0,0.0
1710444778.6712737,1795,1710444778,671148539,map,0.0005198046748109617,0.00013038098863797737,6.686377873143537e-08,0.9999998564019364,0.0,0.0,0.0,0.0,0.0,0.0,0.0,0.0,0.0,-0.0,0.0,-0.0,0.0,0.0,0.0,0.0,0.0,0.0,0.0,0.0,0.0,-8.00546391123262e-06,-0.006471332119000318,-9.810436516690755,0.0,0.0,0.0,0.0,0.0,0.0,0.0,0.0,0.0
1710444778.6884918,1796,1710444778,688282967,map,0.0005198046748109617,0.00013038098863797737,6.686377873143537e-08,0.9999998564019364,0.0,0.0,0.0,0.0,0.0,0.0,0.0,0.0,0.0,-0.0,0.0,-0.0,0.0,0.0,0.0,0.0,0.0,0.0,0.0,0.0,0.0,3.076828157108572e-05,-0.006573222578226727,-9.81043605102949,0.0,0.0,0.0,0.0,0.0,0.0,0.0,0.0,0.0
1710444778.7043948,1797,1710444778,704233170,map,0.0005198046748109617,0.00013038098863797737,6.686377873143537e-08,0.9999998564019364,0.0,0.0,0.0,0.0,0.0,0.0,0.0,0.0,0.0,-0.0,0.0,-0.0,0.0,0.0,0.0,0.0,0.0,0.0,0.0,0.0,0.0,1.2003296896963159e-05,-0.006608977314365592,-9.810436516690755,0.0,0.0,0.0,0.0,0.0,0.0,0.0,0.0,0.0
1710444778.721147,1798,1710444778,721036911,map,0.0005198046748109617,0.00013038098863797737,6.686377873143537e-08,0.9999998564019364,0.0,0.0,0.0,0.0,0.0,0.0,0.0,0.0,0.0,-0.0,0.0,-0.0,0.0,0.0,0.0,0.0,0.0,0.0,0.0,0.0,0.0,1.2392219106246783e-05,-0.006627251108419331,-9.810436516690755,0.0,0.0,0.0,0.0,0.0,0.0,0.0,0.0,0.0
1710444778.7382004,1799,1710444778,738060236,map,0.0005198046748109617,0.00013038098863797737,6.686377873143537e-08,0.9999998564019364,0.0,0.0,0.0,0.0,0.0,0.0,0.0,0.0,0.0,-0.0,0.0,-0.0,0.0,0.0,0.0,0.0,0.0,0.0,0.0,0.0,0.0,1.4646048122528813e-05,-0.006644646103259221,-9.81043605102949,0.0,0.0,0.0,0.0,0.0,0.0,0.0,0.0,0.0
1710444778.7551868,1800,1710444778,755079985,map,0.0005198046748109617,0.00013038098863797737,6.686377873143537e-08,0.9999998564019364,0.0,0.0,0.0,0.0,0.0,0.0,0.0,0.0,0.0,-0.0,0.0,-0.0,0.0,0.0,0.0,0.0,0.0,0.0,0.0,0.0,0.0,1.3861936717329825e-05,-0.006646804106710353,-9.81043605102949,0.0,0.0,0.0,0.0,0.0,0.0,0.0,0.0,0.0
1710444778.7717135,1801,1710444778,771606684,map,0.0005198046748109617,0.00013038098863797737,6.686377873143537e-08,0.9999998564019364,0.0,0.0,0.0,0.0,0.0,0.0,0.0,0.0,0.0,-0.0,0.0,-0.0,0.0,0.0,0.0,0.0,0.0,0.0,0.0,0.0,0.0,1.4050012041481906e-05,-0.006648493493038655,-9.81043605102949,0.0,0.0,0.0,0.0,0.0,0.0,0.0,0.0,0.0
1710444778.7884743,1802,1710444778,788234711,map,0.0005198046748109617,0.00013038098863797737,6.686377873143537e-08,0.9999998564019364,0.0,0.0,0.0,0.0,0.0,0.0,0.0,0.0,0.0,-0.0,0.0,-0.0,0.0,0.0,0.0,0.0,0.0,0.0,0.0,0.0,0.0,1.3899257084574581e-05,-0.006650168554826084,-9.81043605102949,0.0,0.0,0.0,0.0,0.0,0.0,0.0,0.0,0.0
1710444778.8046954,1803,1710444778,804574013,map,0.0005198046748109617,0.00013038098863797737,6.686377873143537e-08,0.9999998564019364,0.0,0.0,0.0,0.0,0.0,0.0,0.0,0.0,0.0,-0.0,0.0,-0.0,0.0,0.0,0.0,0.0,0.0,0.0,0.0,0.0,0.0,1.32630811140235e-05,-0.006681433115835568,-9.81043605102949,0.0,0.0,0.0,0.0,0.0,0.0,0.0,0.0,0.0
1710444778.821703,1804,1710444778,821515322,map,0.0005198046748109617,0.00013038098863797737,6.686377873143537e-08,0.9999998564019364,0.0,0.0,0.0,0.0,0.0,0.0,0.0,0.0,0.0,-0.0,0.0,-0.0,0.0,0.0,0.0,0.0,0.0,0.0,0.0,0.0,0.0,1.4774842869052105e-05,-0.006653600078172885,-9.81043605102949,0.0,0.0,0.0,0.0,0.0,0.0,0.0,0.0,0.0
1710444778.8383598,1805,1710444778,838206291,map,0.0005198046748109617,0.00013038098863797737,6.686377873143537e-08,0.9999998564019364,0.0,0.0,0.0,0.0,0.0,0.0,0.0,0.0,0.0,-0.0,0.0,-0.0,0.0,0.0,0.0,0.0,0.0,0.0,0.0,0.0,0.0,1.3358786775092511e-05,-0.006683979018758582,-9.810436516690755,0.0,0.0,0.0,0.0,0.0,0.0,0.0,0.0,0.0
1710444778.8549423,1806,1710444778,854850769,map,0.0005198046748109617,0.00013038098863797737,6.686377873143537e-08,0.9999998564019364,0.0,0.0,0.0,0.0,0.0,0.0,0.0,0.0,0.0,-0.0,0.0,-0.0,0.0,0.0,0.0,0.0,0.0,0.0,0.0,0.0,0.0,1.42031895049139e-05,-0.00668570933234652,-9.810436516690755,0.0,0.0,0.0,0.0,0.0,0.0,0.0,0.0,0.0
1710444778.8713832,1807,1710444778,871303082,map,0.0005198046748109617,0.00013038098863797737,6.686377873143537e-08,0.9999998564019364,0.0,0.0,0.0,0.0,0.0,0.0,0.0,0.0,0.0,-0.0,0.0,-0.0,0.0,0.0,0.0,0.0,0.0,0.0,0.0,0.0,0.0,1.4120868691994022e-05,-0.006671785423871077,-9.810436516690755,0.0,0.0,0.0,0.0,0.0,0.0,0.0,0.0,0.0
1710444778.8883383,1808,1710444778,888203859,map,0.0005198046748109617,0.00013038098863797737,6.686377873143537e-08,0.9999998564019364,0.0,0.0,0.0,0.0,0.0,0.0,0.0,0.0,0.0,-0.0,0.0,-0.0,0.0,0.0,0.0,0.0,0.0,0.0,0.0,0.0,0.0,1.3153395969381608e-05,-0.0066873573366678565,-9.810436516690755,0.0,0.0,0.0,0.0,0.0,0.0,0.0,0.0,0.0
1710444778.9045157,1809,1710444778,904410601,map,0.0005198046748109617,0.00013038098863797737,6.686377873143537e-08,0.9999998564019364,0.0,0.0,0.0,0.0,0.0,0.0,0.0,0.0,0.0,-0.0,0.0,-0.0,0.0,0.0,0.0,0.0,0.0,0.0,0.0,0.0,0.0,1.4330501437635932e-05,-0.006688629719695202,-9.810436516690755,0.0,0.0,0.0,0.0,0.0,0.0,0.0,0.0,0.0
1710444778.9213781,1810,1710444778,921255350,map,0.0005198046748109617,0.00013038098863797737,6.686377873143537e-08,0.9999998564019364,0.0,0.0,0.0,0.0,0.0,0.0,0.0,0.0,0.0,-0.0,0.0,-0.0,0.0,0.0,0.0,0.0,0.0,0.0,0.0,0.0,0.0,1.4271178227445024e-05,-0.006689488055279231,-9.810436516690755,0.0,0.0,0.0,0.0,0.0,0.0,0.0,0.0,0.0
1710444778.9382682,1811,1710444778,938139439,map,0.0005198046748109617,0.00013038098863797737,6.686377873143537e-08,0.9999998564019364,0.0,0.0,0.0,0.0,0.0,0.0,0.0,0.0,0.0,-0.0,0.0,-0.0,0.0,0.0,0.0,0.0,0.0,0.0,0.0,0.0,0.0,1.3664520421181428e-05,-0.006690331838948723,-9.810436516690755,0.0,0.0,0.0,0.0,0.0,0.0,0.0,0.0,0.0
1710444778.954698,1812,1710444778,954606295,map,0.0005194060688172153,0.00013075481282214302,6.735217741414924e-08,0.9999998565602448,0.0,0.0,0.0,0.0,0.0,0.0,0.0,0.0,0.0,-7.972121151399244e-05,7.47648780545006e-05,4.845228172675503e-08,0.0,0.0,0.0,0.0,0.0,0.0,0.0,0.0,0.0,1.5055588948757234e-05,-0.006691175167870886,-9.810436516690755,0.0,0.0,0.0,0.0,0.0,0.0,0.0,0.0,0.0
1710444778.9717376,1813,1710444778,971548796,map,0.0005194060688172153,0.00013075481282214302,6.735217741414924e-08,0.9999998565602448,0.0,0.0,0.0,0.0,0.0,0.0,0.0,0.0,0.0,-0.0,0.0,-0.0,0.0,0.0,0.0,0.0,0.0,0.0,0.0,0.0,0.0,-0.00030215733190301354,-0.00702501814259945,-9.81043605102949,0.0,0.0,0.0,0.0,0.0,0.0,0.0,0.0,0.0
1710444778.9904716,1814,1710444778,990348339,map,0.0005174167950515917,0.00013149056564248132,6.758774064196539e-08,0.9999998574950333,0.0,0.0,0.0,0.0,0.0,0.0,0.0,0.0,0.0,-0.00039785478935352666,0.00014715056994330297,-8.104697077359e-08,0.0,0.0,0.0,0.0,0.0,0.0,0.0,0.0,0.0,0.0003342421611712665,-0.006095364762291566,-9.810436516690755,0.0,0.0,0.0,0.0,0.0,0.0,0.0,0.0,0.0
1710444779.0046222,1815,1710444779,4505157,map,0.0005148202681050344,0.00013221840902076802,-5.663879166403204e-09,0.999999858739182,0.0,0.0,0.0,0.0,0.0,0.0,0.0,0.0,0.0,-0.0005193034970723783,0.00014556111538153364,-1.4793547375820426e-05,0.0,0.0,0.0,0.0,0.0,0.0,0.0,0.0,0.0,-0.0005840407417841164,-0.0051650608659291365,-9.809963870506587,0.0,0.0,0.0,0.0,0.0,0.0,0.0,0.0,0.0
1710444779.0216134,1816,1710444779,21539211,map,0.0005132779675580021,0.0001326125107730778,-2.6501085044842393e-07,0.9999998594797801,0.0,0.0,0.0,0.0,0.0,0.0,0.0,0.0,0.0,-0.00030845326397903046,7.87936947028504e-05,-5.195062782652606e-05,0.0,0.0,0.0,0.0,0.0,0.0,0.0,0.0,0.0,-1.0099296918678481e-05,-0.004404906708221599,-9.810434188384429,0.0,0.0,0.0,0.0,0.0,0.0,0.0,0.0,0.0
1710444779.0380867,1817,1710444779,37952423,map,0.0005140043989931541,0.00013274541336807274,-3.53877581023404e-07,0.999999859088994,0.0,0.0,0.0,0.0,0.0,0.0,0.0,0.0,0.0,0.00014528865901564176,2.6571428556739263e-05,-1.7767739356299428e-05,0.0,0.0,0.0,0.0,0.0,0.0,0.0,0.0,0.0,0.0023593177348056912,-0.005494949357882219,-9.810447226899853,0.0,0.0,0.0,0.0,0.0,0.0,0.0,0.0,0.0
1710444779.0549116,1818,1710444779,54675579,map,0.0005175285535968494,0.00013359646076362957,-3.5613405800359015e-07,0.9999998571580174,0.0,0.0,0.0,0.0,0.0,0.0,0.0,0.0,0.0,0.0007048310199819088,0.0001702095222786156,-4.4582066295499627e-07,0.0,0.0,0.0,0.0,0.0,0.0,0.0,0.0,0.0,0.0006724053598730302,-0.007301957447145991,-9.81051148815445,0.0,0.0,0.0,0.0,0.0,0.0,0.0,0.0,0.0
1710444779.071765,1819,1710444779,71552753,map,0.0005240664056283256,0.0001342517978576442,-3.882983167053542e-07,0.9999998536653426,0.0,0.0,0.0,0.0,0.0,0.0,0.0,0.0,0.0,0.001307571397915481,0.00013106458852744956,-6.3268523051128015e-06,0.0,0.0,0.0,0.0,0.0,0.0,0.0,0.0,0.0,-0.003778312239029603,-0.009347964589152886,-9.811322670078411,0.0,0.0,0.0,0.0,0.0,0.0,0.0,0.0,0.0
1710444779.0883615,1820,1710444779,88074446,map,0.0005337298380110589,0.0001349510538521853,-4.1965271564891123e-07,0.999999848460237,0.0,0.0,0.0,0.0,0.0,0.0,0.0,0.0,0.0,0.001932687531150908,0.00013984872349789048,-6.0860553759606e-06,0.0,0.0,0.0,0.0,0.0,0.0,0.0,0.0,0.0,0.0009012254478733687,-0.014475440133569113,-9.811385534349212,0.0,0.0,0.0,0.0,0.0,0.0,0.0,0.0,0.0
1710444779.1042004,1821,1710444779,103946209,map,0.0005459450297688,0.00013564425450592282,-4.521662145920179e-07,0.9999998417722156,0.0,0.0,0.0,0.0,0.0,0.0,0.0,0.0,0.0,0.002443039519008437,0.0001386377684731637,-6.24869862711966e-06,0.0,0.0,0.0,0.0,0.0,0.0,0.0,0.0,0.0,-0.00023214708873931653,-0.019594519905418377,-9.810882154521542,0.0,0.0,0.0,0.0,0.0,0.0,0.0,0.0,0.0
1710444779.1211064,1822,1710444779,121030807,map,0.0005608163842786226,0.00013633292277355748,-4.856624463582617e-07,0.9999998334490269,0.0,0.0,0.0,0.0,0.0,0.0,0.0,0.0,0.0,0.002974272191087872,0.00013773145021611627,-6.373046545131319e-06,0.0,0.0,0.0,0.0,0.0,0.0,0.0,0.0,0.0,1.7660990053102483e-05,-0.025304482440786806,-9.811324998384737,0.0,0.0,0.0,0.0,0.0,0.0,0.0,0.0,0.0
1710444779.1375554,1823,1710444779,137445688,map,0.0005785003316602893,0.00013701937888587802,-5.198139675433469e-07,0.9999998232813774,0.0,0.0,0.0,0.0,0.0,0.0,0.0,0.0,0.0,0.0035367908968299937,0.00013728925033153772,-6.427546225324986e-06,0.0,0.0,0.0,0.0,0.0,0.0,0.0,0.0,0.0,3.666032281257804e-05,-0.03160663150026746,-9.811242576340799,0.0,0.0,0.0,0.0,0.0,0.0,0.0,0.0,0.0
1710444779.1539984,1824,1710444779,153888941,map,0.0005989409923066065,0.00013770733356149143,-5.536494375420896e-07,0.9999998111530181,0.0,0.0,0.0,0.0,0.0,0.0,0.0,0.0,0.0,0.004088133670380056,0.0001375893249441575,-6.289349560297124e-06,0.0,0.0,0.0,0.0,0.0,0.0,0.0,0.0,0.0,3.5185147345365173e-05,-0.038930240377255475,-9.810941293502221,0.0,0.0,0.0,0.0,0.0,0.0,0.0,0.0,0.0
1710444779.1708508,1825,1710444779,170728445,map,0.0006210915967674854,0.00013839708615035628,-5.867009564068511e-07,0.9999997975455449,0.0,0.0,0.0,0.0,0.0,0.0,0.0,0.0,0.0,0.004430122524047651,0.0001379492252701501,-6.085923777302381e-06,0.0,0.0,0.0,0.0,0.0,0.0,0.0,0.0,0.0,-2.4109367578523587e-05,-0.04811187635587464,-9.811715688186231,0.0,0.0,0.0,0.0,0.0,0.0,0.0,0.0,0.0
1710444779.1877828,1826,1710444779,187559605,map,0.0006440505522872443,0.00013908744155221705,-6.191198871665659e-07,0.9999997829265697,0.0,0.0,0.0,0.0,0.0,0.0,0.0,0.0,0.0,0.004591792811101693,0.00013806998777086773,-5.937220778894935e-06,0.0,0.0,0.0,0.0,0.0,0.0,0.0,0.0,0.0,7.209904330836667e-06,-0.056872839222590156,-9.811155032022944,0.0,0.0,0.0,0.0,0.0,0.0,0.0,0.0,0.0
1710444779.204018,1827,1710444779,203907251,map,0.0006663873835760954,0.00013978235166753084,-6.499367419767278e-07,0.9999997681941365,0.0,0.0,0.0,0.0,0.0,0.0,0.0,0.0,0.0,0.004467367961199108,0.00013898107320035194,-5.634632753173265e-06,0.0,0.0,0.0,0.0,0.0,0.0,0.0,0.0,0.0,1.6953621256523397e-05,-0.06699271534796247,-9.811582509064388,0.0,0.0,0.0,0.0,0.0,0.0,0.0,0.0,0.0
1710444779.2210915,1828,1710444779,220974922,map,0.0006871559083594351,0.00014048068991706237,-6.788082275807433e-07,0.9999997540407061,0.0,0.0,0.0,0.0,0.0,0.0,0.0,0.0,0.0,0.0041537066005115485,0.00013966675510893034,-5.2896564096239474e-06,0.0,0.0,0.0,0.0,0.0,0.0,0.0,0.0,0.0,0.0019918758389178733,-0.08106454130619149,-9.810710791175952,0.0,0.0,0.0,0.0,0.0,0.0,0.0,0.0,0.0
1710444779.2378404,1829,1710444779,237706900,map,0.0007058494067899964,0.00014118638323051114,-7.053686482327388e-07,0.9999997409212278,0.0,0.0,0.0,0.0,0.0,0.0,0.0,0.0,0.0,0.003738701223675903,0.0001411377928911769,-4.886492120681843e-06,0.0,0.0,0.0,0.0,0.0,0.0,0.0,0.0,0.0,0.002682640215336321,-0.09179622721242943,-9.81057155845766,0.0,0.0,0.0,0.0,0.0,0.0,0.0,0.0,0.0
1710444779.254563,1830,1710444779,254455566,map,0.000721704320711039,0.00014190201808934614,-7.289282784769879e-07,0.9999997295030432,0.0,0.0,0.0,0.0,0.0,0.0,0.0,0.0,0.0,0.003170984142139681,0.00014312609867719837,-4.367522189920583e-06,0.0,0.0,0.0,0.0,0.0,0.0,0.0,0.0,0.0,0.002670455033274408,-0.10038136930023335,-9.810547809733135,0.0,0.0,0.0,0.0,0.0,0.0,0.0,0.0,0.0
1710444779.270955,1831,1710444779,270828962,map,0.0007346347106662034,0.0001426278639191429,-7.494668491160558e-07,0.9999997199842472,0.0,0.0,0.0,0.0,0.0,0.0,0.0,0.0,0.0,0.002586079145398221,0.000145168267613008,-3.8473910163060315e-06,0.0,0.0,0.0,0.0,0.0,0.0,0.0,0.0,0.0,0.0026488041718665508,-0.10734569913800279,-9.809582959591662,0.0,0.0,0.0,0.0,0.0,0.0,0.0,0.0,0.0
1710444779.2880898,1832,1710444779,287891388,map,0.0007450766937257363,0.0001433687881254558,-7.663179612525094e-07,0.9999997121527205,0.0,0.0,0.0,0.0,0.0,0.0,0.0,0.0,0.0,0.0020883975498095938,0.00014818407924259473,-3.1827681741975224e-06,0.0,0.0,0.0,0.0,0.0,0.0,0.0,0.0,0.0,0.0026919837950243513,-0.11355605881330884,-9.810028597422448,0.0,0.0,0.0,0.0,0.0,0.0,0.0,0.0,0.0
1710444779.3049495,1833,1710444779,304842472,map,0.0007532164484354169,0.00014412855728455532,-7.786338790488368e-07,0.999999705945624,0.0,0.0,0.0,0.0,0.0,0.0,0.0,0.0,0.0,0.0016279516367856755,0.0001519533592520706,-2.3442405701827994e-06,0.0,0.0,0.0,0.0,0.0,0.0,0.0,0.0,0.0,0.0026058161110212126,-0.11881998834246127,-9.80868190504352,0.0,0.0,0.0,0.0,0.0,0.0,0.0,0.0,0.0
1710444779.3215601,1834,1710444779,321472406,map,0.0007597208467885445,0.00014484460673386382,-7.678523159738998e-07,0.9999997009217979,0.0,0.0,0.0,0.0,0.0,0.0,0.0,0.0,0.0,0.0013008796210166628,0.00014321264418509037,2.235005552071998e-06,0.0,0.0,0.0,0.0,0.0,0.0,0.0,0.0,0.0,0.002650177849861495,-0.12275685056842689,-9.809410199262276,0.0,0.0,0.0,0.0,0.0,0.0,0.0,0.0,0.0
1710444779.3376079,1835,1710444779,337480783,map,0.0007650591393186627,0.00014543348440097215,-7.078397141792198e-07,0.999999696766511,0.0,0.0,0.0,0.0,0.0,0.0,0.0,0.0,0.0,0.0010676569820459274,0.00011778562135980741,1.206705540653234e-05,0.0,0.0,0.0,0.0,0.0,0.0,0.0,0.0,0.0,0.003053311357274531,-0.12539585300267114,-9.808629750981817,0.0,0.0,0.0,0.0,0.0,0.0,0.0,0.0,0.0
1710444779.3549342,1836,1710444779,354666471,map,0.000769246408902739,0.00014605119231840067,-6.419041132690745e-07,0.9999996934642529,0.0,0.0,0.0,0.0,0.0,0.0,0.0,0.0,0.0,0.0008374521546988295,0.00012355237911653108,1.3213875593462585e-05,0.0,0.0,0.0,0.0,0.0,0.0,0.0,0.0,0.0,0.0037222861743496896,-0.12386067967918267,-9.808769449361375,0.0,0.0,0.0,0.0,0.0,0.0,0.0,0.0,0.0
1710444779.3709998,1837,1710444779,370868921,map,0.0007729940488314441,0.00014666283801356922,-5.626257281255197e-07,0.9999996904849001,0.0,0.0,0.0,0.0,0.0,0.0,0.0,0.0,0.0,0.0007495258103847923,0.0001223419260886902,1.587058149893299e-05,0.0,0.0,0.0,0.0,0.0,0.0,0.0,0.0,0.0,0.0026384197892286147,-0.12755219753554597,-9.813327341825055,0.0,0.0,0.0,0.0,0.0,0.0,0.0,0.0,0.0
1710444779.3884065,1838,1710444779,388138056,map,0.0007768236450700489,0.00014725157897848917,-4.6832658299430487e-07,0.99999968743084,0.0,0.0,0.0,0.0,0.0,0.0,0.0,0.0,0.0,0.0007659166394119848,0.00011776332789006833,1.8880685098985266e-05,0.0,0.0,0.0,0.0,0.0,0.0,0.0,0.0,0.0,0.0027778910224946405,-0.13074832092734112,-9.814398362734991,0.0,0.0,0.0,0.0,0.0,0.0,0.0,0.0,0.0
1710444779.404508,1839,1710444779,404225826,map,0.0007810928252770454,0.0001478580877756906,-3.6386792731485807e-07,0.999999684015876,0.0,0.0,0.0,0.0,0.0,0.0,0.0,0.0,0.0,0.0008538331592434254,0.00012131854048532827,2.092270498750887e-05,0.0,0.0,0.0,0.0,0.0,0.0,0.0,0.0,0.0,0.0029418784800903618,-0.12937132145790392,-9.815340861135736,0.0,0.0,0.0,0.0,0.0,0.0,0.0,0.0,0.0
1710444779.4219122,1840,1710444779,421814919,map,0.0007861927446993391,0.00014843057409074205,-2.3599342070460267e-07,0.9999996799345874,0.0,0.0,0.0,0.0,0.0,0.0,0.0,0.0,0.0,0.0010199803619410758,0.000114517825773622,2.563568879051593e-05,0.0,0.0,0.0,0.0,0.0,0.0,0.0,0.0,0.0,0.00270116230143185,-0.13272527673375875,-9.816935285307746,0.0,0.0,0.0,0.0,0.0,0.0,0.0,0.0,0.0
1710444779.4377549,1841,1710444779,437645674,map,0.000792663522825828,0.00014901990247114717,-9.878294571383174e-08,0.9999996747387464,0.0,0.0,0.0,0.0,0.0,0.0,0.0,0.0,0.0,0.0012941519107840475,0.00011788785100088142,2.7540750269336893e-05,0.0,0.0,0.0,0.0,0.0,0.0,0.0,0.0,0.0,0.002958411273993924,-0.13368347119332102,-9.816078468579796,0.0,0.0,0.0,0.0,0.0,0.0,0.0,0.0,0.0
1710444779.4549956,1842,1710444779,454871416,map,0.0008004196197122312,0.00014958423370750706,6.43744910584684e-08,0.9999996684764377,0.0,0.0,0.0,0.0,0.0,0.0,0.0,0.0,0.0,0.0015512149731365665,0.00011289267041423189,3.277229861711026e-05,0.0,0.0,0.0,0.0,0.0,0.0,0.0,0.0,0.0,0.0027653653483699237,-0.13530893187055548,-9.815840515673285,0.0,0.0,0.0,0.0,0.0,0.0,0.0,0.0,0.0
1710444779.4725015,1843,1710444779,472304106,map,0.0008095987291941491,0.00015016722597976817,2.388337675210089e-07,0.999999660999765,0.0,0.0,0.0,0.0,0.0,0.0,0.0,0.0,0.0,0.0018358172524694128,0.00011662677135535051,3.5072055616608574e-05,0.0,0.0,0.0,0.0,0.0,0.0,0.0,0.0,0.0,0.0029648187775504122,-0.1372581248977728,-9.814266114935677,0.0,0.0,0.0,0.0,0.0,0.0,0.0,0.0,0.0
1710444779.4884655,1844,1710444779,488244534,map,0.0008203536352273942,0.00015072060488875626,4.4623812245975886e-07,0.9999996521514462,0.0,0.0,0.0,0.0,0.0,0.0,0.0,0.0,0.0,0.002150975684500897,0.00011070952778290897,4.171307059192925e-05,0.0,0.0,0.0,0.0,0.0,0.0,0.0,0.0,0.0,0.002731323418046819,-0.14027688819094672,-9.812689385891744,0.0,0.0,0.0,0.0,0.0,0.0,0.0,0.0,0.0
1710444779.5054417,1845,1710444779,505336046,map,0.0008324645457050629,0.00015127098590530906,6.675991238570515e-07,0.9999996420596476,0.0,0.0,0.0,0.0,0.0,0.0,0.0,0.0,0.0,0.0024221762606718607,0.00011011224671439825,4.454562356408243e-05,0.0,0.0,0.0,0.0,0.0,0.0,0.0,0.0,0.0,0.0029931962614530845,-0.14358279804722038,-9.811078663575453,0.0,0.0,0.0,0.0,0.0,0.0,0.0,0.0,0.0
1710444779.5208068,1846,1710444779,520723820,map,0.0008459128844815949,0.00015181845083102918,9.154660327487665e-07,0.9999996306907877,0.0,0.0,0.0,0.0,0.0,0.0,0.0,0.0,0.0,0.002689661232243195,0.00010953343328450185,4.988761218233813e-05,0.0,0.0,0.0,0.0,0.0,0.0,0.0,0.0,0.0,0.002896663180513007,-0.1449153405082518,-9.805981535366682,0.0,0.0,0.0,0.0,0.0,0.0,0.0,0.0,0.0
1710444779.5388763,1847,1710444779,538619995,map,0.0008607134526061418,0.00015235224227446679,1.1962343213936892e-06,0.999999617979785,0.0,0.0,0.0,0.0,0.0,0.0,0.0,0.0,0.0,0.0029601062246950444,0.00010680426283950102,5.65111502174934e-05,0.0,0.0,0.0,0.0,0.0,0.0,0.0,0.0,0.0,0.0028754388721000217,-0.1470345724294625,-9.802931919740953,0.0,0.0,0.0,0.0,0.0,0.0,0.0,0.0,0.0
1710444779.554612,1848,1710444779,554447412,map,0.0008762590776646252,0.00015290193881432903,1.4964312278487781e-06,0.9999996043943151,0.0,0.0,0.0,0.0,0.0,0.0,0.0,0.0,0.0,0.003109117113866308,0.00010998857661628696,6.041670770122401e-05,0.0,0.0,0.0,0.0,0.0,0.0,0.0,0.0,0.0,0.0029797945165984958,-0.15104463988049677,-9.800557047288484,0.0,0.0,0.0,0.0,0.0,0.0,0.0,0.0,0.0
1710444779.5710554,1849,1710444779,570955753,map,0.0008920989997888703,0.00015343430393106194,1.827627342894349e-06,0.9999995903068905,0.0,0.0,0.0,0.0,0.0,0.0,0.0,0.0,0.0,0.0031679756362911838,0.00010652776947617824,6.662860664961054e-05,0.0,0.0,0.0,0.0,0.0,0.0,0.0,0.0,0.0,0.0028156027637650924,-0.1550357821687715,-9.798456449321211,0.0,0.0,0.0,0.0,0.0,0.0,0.0,0.0,0.0
1710444779.5881915,1850,1710444779,588008642,map,0.0009080655810059665,0.0001539485663943931,2.200612000597084e-06,0.9999995758558585,0.0,0.0,0.0,0.0,0.0,0.0,0.0,0.0,0.0,0.003193306217284212,0.00010291480303975966,7.499347272729467e-05,0.0,0.0,0.0,0.0,0.0,0.0,0.0,0.0,0.0,0.002967446193932201,-0.15810419547168886,-9.798521641898338,0.0,0.0,0.0,0.0,0.0,0.0,0.0,0.0,0.0
1710444779.60439,1851,1710444779,604269743,map,0.0009234287200638424,0.00015447570198946615,2.604196752110826e-06,0.9999995617048413,0.0,0.0,0.0,0.0,0.0,0.0,0.0,0.0,0.0,0.0030726168414409497,0.00010549529047162273,8.109259348043265e-05,0.0,0.0,0.0,0.0,0.0,0.0,0.0,0.0,0.0,0.003088458323607804,-0.16254937794294283,-9.79837914955119,0.0,0.0,0.0,0.0,0.0,0.0,0.0,0.0,0.0
1710444779.6211572,1852,1710444779,621061087,map,0.0009377673503868474,0.00015498670498380785,3.0411511794164114e-06,0.9999995482810327,0.0,0.0,0.0,0.0,0.0,0.0,0.0,0.0,0.0,0.002867714008490397,0.00010227545798345211,8.773800670371845e-05,0.0,0.0,0.0,0.0,0.0,0.0,0.0,0.0,0.0,0.0028187613250274884,-0.16542469539750593,-9.79952327927976,0.0,0.0,0.0,0.0,0.0,0.0,0.0,0.0,0.0
1710444779.638591,1853,1710444779,638295174,map,0.0009511336802308785,0.00015548886051189146,3.514800525937285e-06,0.9999995355776836,0.0,0.0,0.0,0.0,0.0,0.0,0.0,0.0,0.0,0.0026732527196662538,0.00010051342924676102,9.504863043121267e-05,0.0,0.0,0.0,0.0,0.0,0.0,0.0,0.0,0.0,0.0030246444266967677,-0.16713235210925637,-9.80141898629035,0.0,0.0,0.0,0.0,0.0,0.0,0.0,0.0,0.0
1710444779.6543121,1854,1710444779,654122353,map,0.0009631477304400584,0.00015599062330085828,4.029563572935789e-06,0.9999995239984555,0.0,0.0,0.0,0.0,0.0,0.0,0.0,0.0,0.0,0.002402795421546134,0.00010044358777627344,0.00010322952450426716,0.0,0.0,0.0,0.0,0.0,0.0,0.0,0.0,0.0,0.0030174442985453323,-0.16989616699660706,-9.803834371272892,0.0,0.0,0.0,0.0,0.0,0.0,0.0,0.0,0.0
1710444779.671322,1855,1710444779,671120882,map,0.0009739100838923315,0.00015648314578054683,4.584054250588012e-06,0.9999995134954617,0.0,0.0,0.0,0.0,0.0,0.0,0.0,0.0,0.0,0.002152454732171883,9.860411059563395e-05,0.00011113792087223056,0.0,0.0,0.0,0.0,0.0,0.0,0.0,0.0,0.0,0.0032999464134842115,-0.17666620990329088,-9.80690820128441,0.0,0.0,0.0,0.0,0.0,0.0,0.0,0.0,0.0
1710444779.6879275,1856,1710444779,687807560,map,0.0009838641084516605,0.0001569714722093936,5.1839808550054426e-06,0.9999995036721265,0.0,0.0,0.0,0.0,0.0,0.0,0.0,0.0,0.0,0.001990787470032394,9.77744711234228e-05,0.00012020070848982689,0.0,0.0,0.0,0.0,0.0,0.0,0.0,0.0,0.0,0.0033922812670803097,-0.17980758967471813,-9.810260496732512,0.0,0.0,0.0,0.0,0.0,0.0,0.0,0.0,0.0
1710444779.7043712,1857,1710444779,704182386,map,0.0009929799443372735,0.00015745873651235113,5.828828380278463e-06,0.9999994945816729,0.0,0.0,0.0,0.0,0.0,0.0,0.0,0.0,0.0,0.001823148258663375,9.757171219756331e-05,0.00012915886589937107,0.0,0.0,0.0,0.0,0.0,0.0,0.0,0.0,0.0,0.0034357992222510997,-0.18094522424718582,-9.812450036001437,0.0,0.0,0.0,0.0,0.0,0.0,0.0,0.0,0.0
1710444779.7208953,1858,1710444779,720798016,map,0.0010024346626851459,0.00015794182012122783,6.52494250418485e-06,0.9999994850681443,0.0,0.0,0.0,0.0,0.0,0.0,0.0,0.0,0.0,0.001890923177103507,9.674551422927424e-05,0.00013942365795465553,0.0,0.0,0.0,0.0,0.0,0.0,0.0,0.0,0.0,0.0034275944435624367,-0.1811693905789159,-9.81503073073312,0.0,0.0,0.0,0.0,0.0,0.0,0.0,0.0,0.0
1710444779.7378755,1859,1710444779,737746716,map,0.001015119263350795,0.00015843223218648,7.280940798136995e-06,0.9999994721894091,0.0,0.0,0.0,0.0,0.0,0.0,0.0,0.0,0.0,0.0025368980937070466,9.82197056011303e-05,0.00015150071645749793,0.0,0.0,0.0,0.0,0.0,0.0,0.0,0.0,0.0,0.0034857094469428465,-0.18256282279784422,-9.817088022202729,0.0,0.0,0.0,0.0,0.0,0.0,0.0,0.0,0.0
1710444779.7542183,1860,1710444779,754118443,map,0.0010323860272293017,0.0001589385436275442,8.11016293453157e-06,0.9999994544257789,0.0,0.0,0.0,0.0,0.0,0.0,0.0,0.0,0.0,0.00345332893746608,0.00010140887708031616,0.00016628694373480382,0.0,0.0,0.0,0.0,0.0,0.0,0.0,0.0,0.0,0.0034990774268082356,-0.18669756286718117,-9.818392805067791,0.0,0.0,0.0,0.0,0.0,0.0,0.0,0.0,0.0
1710444779.7711084,1861,1710444779,770922661,map,0.0010561571424635282,0.00015945170792371966,9.008578529716082e-06,0.9999994295128817,0.0,0.0,0.0,0.0,0.0,0.0,0.0,0.0,0.0,0.0047541977785793355,0.00010278482664147905,0.00018033029072731793,0.0,0.0,0.0,0.0,0.0,0.0,0.0,0.0,0.0,0.003542488516356643,-0.19165653974680832,-9.819509926442983,0.0,0.0,0.0,0.0,0.0,0.0,0.0,0.0,0.0
1710444779.7876987,1862,1710444779,787580013,map,0.0010880492532659403,0.00015998908062530803,1.000829243235967e-05,0.9999993952258925,0.0,0.0,0.0,0.0,0.0,0.0,0.0,0.0,0.0,0.006378394744135539,0.00010763568823668444,0.00020084283593096276,0.0,0.0,0.0,0.0,0.0,0.0,0.0,0.0,0.0,0.003670339591117395,-0.20195110796822094,-9.819840080280002,0.0,0.0,0.0,0.0,0.0,0.0,0.0,0.0,0.0
1710444779.8045201,1863,1710444779,804405689,map,0.0011269935233329616,0.00016053863134461122,1.1103067500328486e-05,0.9999993519946242,0.0,0.0,0.0,0.0,0.0,0.0,0.0,0.0,0.0,0.0077888246609022415,0.00011008031220449293,0.00022007722483816705,0.0,0.0,0.0,0.0,0.0,0.0,0.0,0.0,0.0,0.00362898566479985,-0.2141294315309138,-9.81952762157106,0.0,0.0,0.0,0.0,0.0,0.0,0.0,0.0,0.0
1710444779.8213103,1864,1710444779,821176767,map,0.0011725463845203518,0.00016109995810821093,1.230533508159307e-05,0.9999992995149339,0.0,0.0,0.0,0.0,0.0,0.0,0.0,0.0,0.0,0.009110540674262051,0.00011244781328311712,0.00024178443139628804,0.0,0.0,0.0,0.0,0.0,0.0,0.0,0.0,0.0,0.0038266114644639336,-0.22517589626696827,-9.817032142850906,0.0,0.0,0.0,0.0,0.0,0.0,0.0,0.0,0.0
1710444779.8378327,1865,1710444779,837695122,map,0.0012233332693030625,0.00016161528490471624,1.3625561308663596e-05,0.9999992385749882,0.0,0.0,0.0,0.0,0.0,0.0,0.0,0.0,0.0,0.010157342730273109,0.00010326535278361464,0.00026555547035410083,0.0,0.0,0.0,0.0,0.0,0.0,0.0,0.0,0.0,0.003894895754995527,-0.24382558355360082,-9.816141332850599,0.0,0.0,0.0,0.0,0.0,0.0,0.0,0.0,0.0
1710444779.8541813,1866,1710444779,854083776,map,0.001276418651185321,0.00016215401028638008,1.5083763262090812e-05,0.9999991721166493,0.0,0.0,0.0,0.0,0.0,0.0,0.0,0.0,0.0,0.010617038733724224,0.0001079748179204601,0.0002932186919657236,0.0,0.0,0.0,0.0,0.0,0.0,0.0,0.0,0.0,0.004283182671601997,-0.254859451788634,-9.813237934862139,0.0,0.0,0.0,0.0,0.0,0.0,0.0,0.0,0.0
1710444779.8713095,1867,1710444779,871102810,map,0.001329816952434543,0.000162700753239226,1.6688679378480234e-05,0.9999991024180102,0.0,0.0,0.0,0.0,0.0,0.0,0.0,0.0,0.0,0.010679618630227332,0.00010961660468216322,0.0003225694901047015,0.0,0.0,0.0,0.0,0.0,0.0,0.0,0.0,0.0,0.004061574179912305,-0.27049664265503753,-9.812425821615646,0.0,0.0,0.0,0.0,0.0,0.0,0.0,0.0,0.0
1710444779.887559,1868,1710444779,887450933,map,0.0013824217633015333,0.00016325266182372415,1.8453504614787528e-05,0.999999030958583,0.0,0.0,0.0,0.0,0.0,0.0,0.0,0.0,0.0,0.010520915958657211,0.00011069639080858642,0.0003545241273047707,0.0,0.0,0.0,0.0,0.0,0.0,0.0,0.0,0.0,0.004262377640226614,-0.2948761963128941,-9.811380412075295,0.0,0.0,0.0,0.0,0.0,0.0,0.0,0.0,0.0
1710444779.9042695,1869,1710444779,904092312,map,0.001431551050772999,0.00016381272480544477,2.0373613956368522e-05,0.9999989617054091,0.0,0.0,0.0,0.0,0.0,0.0,0.0,0.0,0.0,0.009825806281855174,0.00011238324531550096,0.00038546547970105447,0.0,0.0,0.0,0.0,0.0,0.0,0.0,0.0,0.0,0.004424432876420194,-0.3149926993044767,-9.809651411797645,0.0,0.0,0.0,0.0,0.0,0.0,0.0,0.0,0.0
1710444779.9212284,1870,1710444779,921047211,map,0.0014761390493121611,0.00016434530955317808,2.249284777540018e-05,0.9999988967484905,0.0,0.0,0.0,0.0,0.0,0.0,0.0,0.0,0.0,0.008917541560807363,0.00010696299822817717,0.00042515015145386595,0.0,0.0,0.0,0.0,0.0,0.0,0.0,0.0,0.0,0.004417151007436319,-0.3290408329268499,-9.80677176253371,0.0,0.0,0.0,0.0,0.0,0.0,0.0,0.0,0.0
1710444779.9378643,1871,1710444779,937731504,map,0.0015162230877193111,0.0001649011246759709,2.4814832076595183e-05,0.999998836629019,0.0,0.0,0.0,0.0,0.0,0.0,0.0,0.0,0.0,0.008016742506930723,0.00011168873237838529,0.0004655455744781797,0.0,0.0,0.0,0.0,0.0,0.0,0.0,0.0,0.0,0.004807320350612374,-0.3437224141175108,-9.806095622376654,0.0,0.0,0.0,0.0,0.0,0.0,0.0,0.0,0.0
1710444779.9543557,1872,1710444779,954249859,map,0.0015507564494818581,0.00016541992081873234,2.7257449851425523e-05,0.999998783523118,0.0,0.0,0.0,0.0,0.0,0.0,0.0,0.0,0.0,0.006906602184254239,0.0001043470860789782,0.0004895012429689113,0.0,0.0,0.0,0.0,0.0,0.0,0.0,0.0,0.0,0.004558458624104839,-0.35607408008617064,-9.80475405227164,0.0,0.0,0.0,0.0,0.0,0.0,0.0,0.0,0.0
1710444779.9709792,1873,1710444779,970892668,map,0.0015821792904197852,0.0001659478369133166,2.9988897493055085e-05,0.9999987341345361,0.0,0.0,0.0,0.0,0.0,0.0,0.0,0.0,0.0,0.0062844880815476215,0.00010627777836278632,0.0005471616526966957,0.0,0.0,0.0,0.0,0.0,0.0,0.0,0.0,0.0,0.005065163677933826,-0.3645038204596426,-9.803773369647152,0.0,0.0,0.0,0.0,0.0,0.0,0.0,0.0,0.0
1710444779.9884264,1874,1710444779,988261700,map,0.0016115830281260702,0.00016667197142484211,3.291760921845177e-05,0.9999986869676523,0.0,0.0,0.0,0.0,0.0,0.0,0.0,0.0,0.0,0.005880661736764667,0.0001455959213391849,0.0005864843609659848,0.0,0.0,0.0,0.0,0.0,0.0,0.0,0.0,0.0,0.004811143979843852,-0.37567689867560117,-9.803017601413748,0.0,0.0,0.0,0.0,0.0,0.0,0.0,0.0,0.0
1710444780.0046368,1875,1710444780,4433393,map,0.0016304293199019854,0.0001671221543246827,3.618122304971602e-05,0.9999986562297659,0.0,0.0,0.0,0.0,0.0,0.0,0.0,0.0,0.0,0.0037691571896638393,9.097763848504552e-05,0.0006532035254390955,0.0,0.0,0.0,0.0,0.0,0.0,0.0,0.0,0.0,0.004202966038523575,-0.3498040748416606,-9.803602471962826,0.0,0.0,0.0,0.0,0.0,0.0,0.0,0.0,0.0
1710444780.0214295,1876,1710444780,21246910,map,0.0016418548529961512,0.00016780185206294006,3.9790936692485115e-05,0.9999986372850023,0.0,0.0,0.0,0.0,0.0,0.0,0.0,0.0,0.0,0.002284993496901778,0.00013704264682307333,0.0007221005819754728,0.0,0.0,0.0,0.0,0.0,0.0,0.0,0.0,0.0,0.0069494182180947816,-0.23474695239253848,-9.801748674466104,0.0,0.0,0.0,0.0,0.0,0.0,0.0,0.0,0.0
1710444780.0380368,1877,1710444780,37887812,map,0.0016369075820282031,0.0001687701133283458,4.364601739033992e-05,0.9999986450717031,0.0,0.0,0.0,0.0,0.0,0.0,0.0,0.0,0.0,-0.0009895778256039146,0.00019495318326033018,0.0007705320104083898,0.0,0.0,0.0,0.0,0.0,0.0,0.0,0.0,0.0,0.0032628074264749968,-0.22717934201481152,-9.803104680070339,0.0,0.0,0.0,0.0,0.0,0.0,0.0,0.0,0.0
1710444780.055191,1878,1710444780,54653406,map,0.0015955382413269635,0.0001691707869789757,4.751831540035944e-05,0.9999987116896577,0.0,0.0,0.0,0.0,0.0,0.0,0.0,0.0,0.0,-0.00827400626558888,8.172923688756206e-05,0.0007729337981384807,0.0,0.0,0.0,0.0,0.0,0.0,0.0,0.0,0.0,0.004747593609010138,-0.24955795285412521,-9.801536798590444,0.0,0.0,0.0,0.0,0.0,0.0,0.0,0.0,0.0
1710444780.0712373,1879,1710444780,71104050,map,0.001523044076337837,0.0001694487711489755,5.1814033521459326e-05,0.9999988244688899,0.0,0.0,0.0,0.0,0.0,0.0,0.0,0.0,0.0,-0.014498993267174807,5.759060387409549e-05,0.0008566041369797633,0.0,0.0,0.0,0.0,0.0,0.0,0.0,0.0,0.0,0.007239254611647236,-0.2665443226578548,-9.798315819619123,0.0,0.0,0.0,0.0,0.0,0.0,0.0,0.0,0.0
1710444780.0879078,1880,1710444780,87774277,map,0.001431390774914275,0.0001695841212205495,5.64664821614261e-05,0.9999989595860647,0.0,0.0,0.0,0.0,0.0,0.0,0.0,0.0,0.0,-0.018330836324005086,2.9347371017523957e-05,0.0009273425910036918,0.0,0.0,0.0,0.0,0.0,0.0,0.0,0.0,0.0,0.0057115679071276446,-0.24635469811471217,-9.799826890424665,0.0,0.0,0.0,0.0,0.0,0.0,0.0,0.0,0.0
1710444780.104823,1881,1710444780,104591846,map,0.001332812076813205,0.00016969130336218577,6.13948535107397e-05,0.9999990955233417,0.0,0.0,0.0,0.0,0.0,0.0,0.0,0.0,0.0,-0.01971592411717683,2.3859124344648967e-05,0.0009822999056903908,0.0,0.0,0.0,0.0,0.0,0.0,0.0,0.0,0.0,0.006154319570302337,-0.20947900071420797,-9.803107008376664,0.0,0.0,0.0,0.0,0.0,0.0,0.0,0.0,0.0
1710444780.1215293,1882,1710444780,121446371,map,0.0012432151843522062,0.00016982623814081627,6.672583520042192e-05,0.999999210561047,0.0,0.0,0.0,0.0,0.0,0.0,0.0,0.0,0.0,-0.017919572397210166,2.940897096166849e-05,0.0010631198690630218,0.0,0.0,0.0,0.0,0.0,0.0,0.0,0.0,0.0,0.0057723844507045164,-0.17520243895908408,-9.806295856720686,0.0,0.0,0.0,0.0,0.0,0.0,0.0,0.0,0.0
1710444780.1378303,1883,1710444780,137710810,map,0.0011761823284725127,0.0001700138886869643,7.244662448212739e-05,0.9999992912206961,0.0,0.0,0.0,0.0,0.0,0.0,0.0,0.0,0.0,-0.013406772688826733,3.976779752802591e-05,0.0011418350994917557,0.0,0.0,0.0,0.0,0.0,0.0,0.0,0.0,0.0,0.005765918284742551,-0.11701570646343656,-9.809943847072184,0.0,0.0,0.0,0.0,0.0,0.0,0.0,0.0,0.0
1710444780.1548195,1884,1710444780,154618740,map,0.0011351631372643878,0.00017092515664213873,7.886310939694309e-05,0.9999993379847072,0.0,0.0,0.0,0.0,0.0,0.0,0.0,0.0,0.0,-0.008204049585740813,0.00018430302813330935,0.0012816938271587046,0.0,0.0,0.0,0.0,0.0,0.0,0.0,0.0,0.0,0.006034353814231423,-0.06193442528959765,-9.813919662954376,0.0,0.0,0.0,0.0,0.0,0.0,0.0,0.0,0.0
1710444780.171194,1885,1710444780,170976877,map,0.0011273176171995457,0.00017099968279116532,8.543203674204078e-05,0.9999993463075192,0.0,0.0,0.0,0.0,0.0,0.0,0.0,0.0,0.0,-0.0015693283557393297,1.6509734119354052e-05,0.0013134994783801201,0.0,0.0,0.0,0.0,0.0,0.0,0.0,0.0,0.0,0.003884472718834601,-0.016893695935999514,-9.815689641423363,0.0,0.0,0.0,0.0,0.0,0.0,0.0,0.0,0.0
1710444780.1879969,1886,1710444780,187799215,map,0.00115722434709921,0.00017170875392956853,9.258010581691908e-05,0.9999993113881821,0.0,0.0,0.0,0.0,0.0,0.0,0.0,0.0,0.0,0.005981116573531742,0.0001429587386574943,0.0014304721410696981,0.0,0.0,0.0,0.0,0.0,0.0,0.0,0.0,0.0,0.012166797536884738,0.014809454320667152,-9.819346013677636,0.0,0.0,0.0,0.0,0.0,0.0,0.0,0.0,0.0
1710444780.2045066,1887,1710444780,204264879,map,0.001216527237817058,0.00017252929088037655,0.000100304167789046,0.99999924011681,0.0,0.0,0.0,0.0,0.0,0.0,0.0,0.0,0.0,0.011860335139063607,0.00016489108487768392,0.0015466495307558806,0.0,0.0,0.0,0.0,0.0,0.0,0.0,0.0,0.0,0.004294534870243488,0.02350138563330223,-9.822519495199906,0.0,0.0,0.0,0.0,0.0,0.0,0.0,0.0,0.0
1710444780.2213013,1888,1710444780,221189022,map,0.0013017953556330026,0.00017262075584238907,0.00010819423385422951,0.9999991319120904,0.0,0.0,0.0,0.0,0.0,0.0,0.0,0.0,0.0,0.017053366386436446,1.8640659916862557e-05,0.0015809325965981248,0.0,0.0,0.0,0.0,0.0,0.0,0.0,0.0,0.0,0.006094658426002351,0.02173441941062418,-9.821920654812871,0.0,0.0,0.0,0.0,0.0,0.0,0.0,0.0,0.0
1710444780.2378504,1889,1710444780,237731695,map,0.0014064275599013085,0.0001739487887250723,0.00011683440966641745,0.9999989890260182,0.0,0.0,0.0,0.0,0.0,0.0,0.0,0.0,0.0,0.020926188070031198,0.00026577785335151686,0.0017312755277836369,0.0,0.0,0.0,0.0,0.0,0.0,0.0,0.0,0.0,0.012233802964239543,0.043590827520813606,-9.823590050448578,0.0,0.0,0.0,0.0,0.0,0.0,0.0,0.0,0.0
1710444780.2544744,1890,1710444780,254378319,map,0.0014926531242143164,0.0001740863613419852,0.00012574224784418366,0.9999988629340919,0.0,0.0,0.0,0.0,0.0,0.0,0.0,0.0,0.0,0.017244823979945402,2.8163574927787992e-05,0.001784527428397629,0.0,0.0,0.0,0.0,0.0,0.0,0.0,0.0,0.0,0.00025402791196360916,0.06560117305893468,-9.823322295221093,0.0,0.0,0.0,0.0,0.0,0.0,0.0,0.0,0.0
1710444780.2711117,1891,1710444780,270973206,map,0.0015245341759590734,0.00017446255926223533,0.00013495025058034182,0.999998813572692,0.0,0.0,0.0,0.0,0.0,0.0,0.0,0.0,0.0,0.006375905987601424,7.724707001833266e-05,0.0018425949375939531,0.0,0.0,0.0,0.0,0.0,0.0,0.0,0.0,0.0,0.01231665860975665,-0.01532561800525848,-9.81540931334172,0.0,0.0,0.0,0.0,0.0,0.0,0.0,0.0,0.0
1710444780.2878802,1892,1710444780,287669420,map,0.0014825687807693908,0.00017557432598529072,0.00014519682255658428,0.9999988750400418,0.0,0.0,0.0,0.0,0.0,0.0,0.0,0.0,0.0,-0.008393417665913762,0.00022652190591043687,0.0020475165498620197,0.0,0.0,0.0,0.0,0.0,0.0,0.0,0.0,0.0,0.0025463801234926397,-0.05856065121563784,-9.80811053867113,0.0,0.0,0.0,0.0,0.0,0.0,0.0,0.0,0.0
1710444780.3046107,1893,1710444780,304420233,map,0.0013576374331065433,0.00017448739921636274,0.00015589428496567447,0.9999990510354096,0.0,0.0,0.0,0.0,0.0,0.0,0.0,0.0,0.0,-0.024986698627789215,-0.00021085820147144073,0.002135393978943054,0.0,0.0,0.0,0.0,0.0,0.0,0.0,0.0,0.0,-0.005486974482390219,9.320501261068914e-05,-9.802013170064733,0.0,0.0,0.0,0.0,0.0,0.0,0.0,0.0,0.0
1710444780.322102,1894,1710444780,321880817,map,0.001174382931433606,0.00017387102229317387,0.0001670523873352785,0.9999992813432907,0.0,0.0,0.0,0.0,0.0,0.0,0.0,0.0,0.0,-0.03665133562509832,-0.00011494772187990809,0.0022253623909298725,0.0,0.0,0.0,0.0,0.0,0.0,0.0,0.0,0.0,0.025017480487337797,0.06549464940654381,-9.796500206346147,0.0,0.0,0.0,0.0,0.0,0.0,0.0,0.0,0.0
1710444780.3376787,1895,1710444780,337544203,map,0.0009596312133439492,0.00017233328176040688,0.00017871259506227613,0.9999995087353708,0.0,0.0,0.0,0.0,0.0,0.0,0.0,0.0,0.0,-0.04295081987895306,-0.0002981414061490069,0.0023248616578552877,0.0,0.0,0.0,0.0,0.0,0.0,0.0,0.0,0.0,0.0014944592835066564,0.11641606390211334,-9.797814302436514,0.0,0.0,0.0,0.0,0.0,0.0,0.0,0.0,0.0
1710444780.355337,1896,1710444780,355199099,map,0.0007305518650327053,0.00017143560956198384,0.00019126019532155077,0.9999997001616261,0.0,0.0,0.0,0.0,0.0,0.0,0.0,0.0,0.0,-0.04581634673701781,-0.00016951797223389213,0.002501749896875991,0.0,0.0,0.0,0.0,0.0,0.0,0.0,0.0,0.0,0.011789855884022987,0.20766594130223337,-9.798598476007095,0.0,0.0,0.0,0.0,0.0,0.0,0.0,0.0,0.0
1710444780.3715997,1897,1710444780,371498823,map,0.0005211234131989484,0.00017092295585502363,0.00020437604843507142,0.9999998287230665,0.0,0.0,0.0,0.0,0.0,0.0,0.0,0.0,0.0,-0.04188616499816954,-9.315557253323599e-05,0.0026160396714021037,0.0,0.0,0.0,0.0,0.0,0.0,0.0,0.0,0.0,0.00015793569434842202,0.2693359801325621,-9.797971695944149,0.0,0.0,0.0,0.0,0.0,0.0,0.0,0.0,0.0
1710444780.3880546,1898,1710444780,387830019,map,0.0003575757420536748,0.00016990012804737455,0.00021744138426889982,0.9999998979963846,0.0,0.0,0.0,0.0,0.0,0.0,0.0,0.0,0.0,-0.03271002186899049,-0.00019694758606829843,0.0026075475054249423,0.0,0.0,0.0,0.0,0.0,0.0,0.0,0.0,0.0,0.004316280773843166,0.3780553927358007,-9.80207836264186,0.0,0.0,0.0,0.0,0.0,0.0,0.0,0.0,0.0
1710444780.4054298,1899,1710444780,405296803,map,0.0002453886090623938,0.00016866160961116238,0.00023125992105604745,0.9999999289282681,0.0,0.0,0.0,0.0,0.0,0.0,0.0,0.0,0.0,-0.02243794664456643,-0.00024214729339901319,0.0027599550325433163,0.0,0.0,0.0,0.0,0.0,0.0,0.0,0.0,0.0,0.011794462474468666,0.4658009053619148,-9.805270936276003,0.0,0.0,0.0,0.0,0.0,0.0,0.0,0.0,0.0
1710444780.4218628,1900,1710444780,421766520,map,0.00022041426221052035,0.00016888618972139987,0.00024576361250553335,0.999999931247625,0.0,0.0,0.0,0.0,0.0,0.0,0.0,0.0,0.0,-0.004995348663441924,4.67104321676543e-05,0.0028998856795545416,0.0,0.0,0.0,0.0,0.0,0.0,0.0,0.0,0.0,0.011498414573458647,0.47320251841253747,-9.807632770213045,0.0,0.0,0.0,0.0,0.0,0.0,0.0,0.0,0.0
1710444780.438792,1901,1710444780,438593388,map,0.0003566630422500538,0.00016908949728375604,0.00026163492583116353,0.9999998878736847,0.0,0.0,0.0,0.0,0.0,0.0,0.0,0.0,0.0,0.027249229480340167,3.5098735813924414e-05,0.0031788529714918516,0.0,0.0,0.0,0.0,0.0,0.0,0.0,0.0,0.0,0.0015927680959241834,0.4893825157000606,-9.816924109437382,0.0,0.0,0.0,0.0,0.0,0.0,0.0,0.0,0.0
1710444780.455456,1902,1710444780,455307245,map,0.0006775744357471525,0.00017333204119462944,0.00027916819494228437,0.9999997164569631,0.0,0.0,0.0,0.0,0.0,0.0,0.0,0.0,0.0,0.06418189923634303,0.0008341015161345337,0.0035169448264841885,0.0,0.0,0.0,0.0,0.0,0.0,0.0,0.0,0.0,0.015694699123159836,0.3615798315121127,-9.836306328278386,0.0,0.0,0.0,0.0,0.0,0.0,0.0,0.0,0.0
1710444780.4717648,1903,1710444780,471635580,map,0.001156065735694097,0.00017673690001038383,0.0002983263428204608,0.9999992716384728,0.0,0.0,0.0,0.0,0.0,0.0,0.0,0.0,0.0,0.09569781009396341,0.0006587083392850898,0.0038474647467073354,0.0,0.0,0.0,0.0,0.0,0.0,0.0,0.0,0.0,-0.003429697422586725,0.12462992116645819,-9.848450774074541,0.0,0.0,0.0,0.0,0.0,0.0,0.0,0.0,0.0
1710444780.4888597,1904,1710444780,488739252,map,0.0017451086524616507,0.00018196977885718215,0.0003191065294522344,0.9999984098256425,0.0,0.0,0.0,0.0,0.0,0.0,0.0,0.0,0.0,0.1178082600781814,0.001018724200153374,0.0041750975870614455,0.0,0.0,0.0,0.0,0.0,0.0,0.0,0.0,0.0,0.02295091808392613,-0.02146908707691036,-9.851223786908749,0.0,0.0,0.0,0.0,0.0,0.0,0.0,0.0,0.0
1710444780.5055375,1905,1710444780,505417585,map,0.002375636304335299,0.000187371687144177,0.00034141247362647303,0.9999971023365635,0.0,0.0,0.0,0.0,0.0,0.0,0.0,0.0,0.0,0.1261053039849471,0.0010507977031301273,0.0044816655340725806,0.0,0.0,0.0,0.0,0.0,0.0,0.0,0.0,0.0,0.014210287425050365,-0.22554951667271056,-9.850644969956118,0.0,0.0,0.0,0.0,0.0,0.0,0.0,0.0,0.0
1710444780.5218616,1906,1710444780,521747589,map,0.0029991755345175767,0.00019780013654771076,0.00036656442730248555,0.9999954157153621,0.0,0.0,0.0,0.0,0.0,0.0,0.0,0.0,0.0,0.12470801174320802,0.0020582684011217554,0.005047620773788326,0.0,0.0,0.0,0.0,0.0,0.0,0.0,0.0,0.0,0.021190330829409652,-0.5561585357601658,-9.844792073513943,0.0,0.0,0.0,0.0,0.0,0.0,0.0,0.0,0.0
1710444780.5379066,1907,1710444780,537796259,map,0.003561414977421287,0.0002074657065879079,0.00039394647340074005,0.9999935590230146,0.0,0.0,0.0,0.0,0.0,0.0,0.0,0.0,0.0,0.11244806565716985,0.0019114719787899452,0.0054918908555805345,0.0,0.0,0.0,0.0,0.0,0.0,0.0,0.0,0.0,-0.012322563049080115,-0.8005806650457774,-9.839535223491215,0.0,0.0,0.0,0.0,0.0,0.0,0.0,0.0,0.0
1710444780.5550902,1908,1710444780,554997206,map,0.003999606230054137,0.00021603623011521263,0.00042389457397934064,0.9999918883629716,0.0,0.0,0.0,0.0,0.0,0.0,0.0,0.0,0.0,0.08763826038843651,0.0017035994987205962,0.006001044535035173,0.0,0.0,0.0,0.0,0.0,0.0,0.0,0.0,0.0,0.02883342630794063,-0.9515355143839854,-9.830038527648929,0.0,0.0,0.0,0.0,0.0,0.0,0.0,0.0,0.0
1710444780.571507,1909,1710444780,571360350,map,0.004291140407006904,0.0002191520911886821,0.0004569707427058836,0.9999906645884794,0.0,0.0,0.0,0.0,0.0,0.0,0.0,0.0,0.0,0.05830615647072843,0.0006268938928685526,0.006625205304561052,0.0,0.0,0.0,0.0,0.0,0.0,0.0,0.0,0.0,0.02829743700403437,-1.179687542746249,-9.814328047883947,0.0,0.0,0.0,0.0,0.0,0.0,0.0,0.0,0.0
1710444780.5887065,1910,1710444780,588519335,map,0.004426691991742275,0.0002189701343857162,0.0004931376079579555,0.9999900565832593,0.0,0.0,0.0,0.0,0.0,0.0,0.0,0.0,0.0,0.02710898453607889,-1.673230204033141e-05,0.007239460871172057,0.0,0.0,0.0,0.0,0.0,0.0,0.0,0.0,0.0,0.05829123252242305,-1.267439014381366,-9.803458582631883,0.0,0.0,0.0,0.0,0.0,0.0,0.0,0.0,0.0
1710444780.6055512,1911,1710444780,605454206,map,0.004391555120939864,0.00022123261163069528,0.0005308950660296458,0.9999901916769885,0.0,0.0,0.0,0.0,0.0,0.0,0.0,0.0,0.0,-0.007028872761962943,0.0004891133585462319,0.007547878555758911,0.0,0.0,0.0,0.0,0.0,0.0,0.0,0.0,0.0,0.03961158739123172,-1.2849316198259941,-9.789934848168235,0.0,0.0,0.0,0.0,0.0,0.0,0.0,0.0,0.0
1710444780.6218965,1912,1710444780,621747255,map,0.004229031458263326,0.00022093046338232683,0.000571552425137264,0.9999908698635607,0.0,0.0,0.0,0.0,0.0,0.0,0.0,0.0,0.0,-0.032506840217621846,-8.813147357438756e-06,0.008124393006617877,0.0,0.0,0.0,0.0,0.0,0.0,0.0,0.0,0.0,0.006736841065208147,-1.3237478841516264,-9.773782921523853,0.0,0.0,0.0,0.0,0.0,0.0,0.0,0.0,0.0
1710444780.6391718,1913,1710444780,639035225,map,0.003988787756444214,0.00022007735753934028,0.0006159082169049047,0.9999918308642622,0.0,0.0,0.0,0.0,0.0,0.0,0.0,0.0,0.0,-0.04805116765357273,-0.00010781221355080042,0.008861047994130953,0.0,0.0,0.0,0.0,0.0,0.0,0.0,0.0,0.0,0.04117315788769065,-1.231269586876967,-9.765496479309796,0.0,0.0,0.0,0.0,0.0,0.0,0.0,0.0,0.0
1710444780.6552982,1914,1710444780,655194759,map,0.0036978610305700554,0.00021771397121991544,0.0006634538374719638,0.9999929191016459,0.0,0.0,0.0,0.0,0.0,0.0,0.0,0.0,0.0,-0.05818810367845672,-0.00040171792616187967,0.009497876043035895,0.0,0.0,0.0,0.0,0.0,0.0,0.0,0.0,0.0,0.034440070932216016,-1.1733147413847846,-9.759440554556,0.0,0.0,0.0,0.0,0.0,0.0,0.0,0.0,0.0
1710444780.6724024,1915,1710444780,672253370,map,0.003385361523972078,0.00021631845525774856,0.0007142029859641115,0.9999939912058337,0.0,0.0,0.0,0.0,0.0,0.0,0.0,0.0,0.0,-0.06250263738699988,-0.00020331738874852489,0.010136977513284165,0.0,0.0,0.0,0.0,0.0,0.0,0.0,0.0,0.0,0.05082464562813921,-1.1224687435789678,-9.751182052017855,0.0,0.0,0.0,0.0,0.0,0.0,0.0,0.0,0.0
1710444780.6887376,1916,1710444780,688472986,map,0.003091242440208094,0.00022113179665699185,0.0007668389691703727,0.9999949036264634,0.0,0.0,0.0,0.0,0.0,0.0,0.0,0.0,0.0,-0.05882572619468171,0.001037181897462394,0.010511324922002761,0.0,0.0,0.0,0.0,0.0,0.0,0.0,0.0,0.0,0.0390978049910302,-1.0774757972557418,-9.746433704096713,0.0,0.0,0.0,0.0,0.0,0.0,0.0,0.0,0.0
1710444780.7052424,1917,1710444780,705057383,map,0.00285583742738605,0.00022178138080941248,0.0008234516372609605,0.9999955584566407,0.0,0.0,0.0,0.0,0.0,0.0,0.0,0.0,0.0,-0.04708358334402314,0.00019832850177898398,0.011311609782863797,0.0,0.0,0.0,0.0,0.0,0.0,0.0,0.0,0.0,0.018293377079564084,-1.0008095739374046,-9.748077488362833,0.0,0.0,0.0,0.0,0.0,0.0,0.0,0.0,0.0
1710444780.7226808,1918,1710444780,722471952,map,0.0027037338502908966,0.00022040931224650274,0.0008869827497392656,0.9999959272440082,0.0,0.0,0.0,0.0,0.0,0.0,0.0,0.0,0.0,-0.030423821438006125,-0.00021502389037560227,0.012700109703632818,0.0,0.0,0.0,0.0,0.0,0.0,0.0,0.0,0.0,0.1032885435105155,-0.8798595900318221,-9.755837733347226,0.0,0.0,0.0,0.0,0.0,0.0,0.0,0.0,0.0
1710444780.7388017,1919,1710444780,738603830,map,0.002611525774935858,0.0002195166950037329,0.0009579752592420252,0.9999961070068975,0.0,0.0,0.0,0.0,0.0,0.0,0.0,0.0,0.0,-0.01844491619248606,-0.00012509339314740312,0.014194818695998757,0.0,0.0,0.0,0.0,0.0,0.0,0.0,0.0,0.0,0.0721087373987696,-0.7481374568026417,-9.765417316894714,0.0,0.0,0.0,0.0,0.0,0.0,0.0,0.0,0.0
1710444780.7557826,1920,1710444780,755595446,map,0.0025521966796811166,0.00022014438226704717,0.001036103469427584,0.999996182151792,0.0,0.0,0.0,0.0,0.0,0.0,0.0,0.0,0.0,-0.011869135785559664,0.00017678045723848985,0.015622644754090672,0.0,0.0,0.0,0.0,0.0,0.0,0.0,0.0,0.0,0.028303612742772318,-0.5510872171908169,-9.770649952531654,0.0,0.0,0.0,0.0,0.0,0.0,0.0,0.0,0.0
1710444780.772863,1921,1710444780,772767782,map,0.0024893283900608216,0.00021981549848503062,0.001122741264050197,0.9999962471816417,0.0,0.0,0.0,0.0,0.0,0.0,0.0,0.0,0.0,-0.01257752505214786,-9.61794004237578e-06,0.017324878601141347,0.0,0.0,0.0,0.0,0.0,0.0,0.0,0.0,0.0,0.03130852898243399,-0.5478557753929454,-9.778555483830786,0.0,0.0,0.0,0.0,0.0,0.0,0.0,0.0,0.0
1710444780.788589,1922,1710444780,788404465,map,0.0023902802677713037,0.0002165540556422492,0.0012142288698365705,0.9999963826498744,0.0,0.0,0.0,0.0,0.0,0.0,0.0,0.0,0.0,-0.019814318474302275,-0.0005863149383386018,0.018294633397043437,0.0,0.0,0.0,0.0,0.0,0.0,0.0,0.0,0.0,0.022777783724862295,-0.4626728112610864,-9.788259864597345,0.0,0.0,0.0,0.0,0.0,0.0,0.0,0.0,0.0
1710444780.8057866,1923,1710444780,805647612,map,0.002268877017873333,0.0002148394981413129,0.001310802144254128,0.999996543913431,0.0,0.0,0.0,0.0,0.0,0.0,0.0,0.0,0.0,-0.02428521242261896,-0.000269612289166691,0.01931007486925201,0.0,0.0,0.0,0.0,0.0,0.0,0.0,0.0,0.0,0.059648261762894596,-0.30137466115867,-9.797755163455836,0.0,0.0,0.0,0.0,0.0,0.0,0.0,0.0,0.0
1710444780.8211303,1924,1710444780,821042299,map,0.0021395199615803617,0.00021202059606422022,0.0014127011351283748,0.9999966908830767,0.0,0.0,0.0,0.0,0.0,0.0,0.0,0.0,0.0,-0.025876456593168624,-0.00048626944041242425,0.020375347449489208,0.0,0.0,0.0,0.0,0.0,0.0,0.0,0.0,0.0,0.03965481493338934,-0.26732470909267647,-9.816945995516846,0.0,0.0,0.0,0.0,0.0,0.0,0.0,0.0,0.0
1710444780.838478,1925,1710444780,838281155,map,0.002012826652680012,0.00021046877490006738,0.0015203072660976591,0.9999967964436576,0.0,0.0,0.0,0.0,0.0,0.0,0.0,0.0,0.0,-0.02534359983222147,-0.00023125314949414962,0.021516387775122058,0.0,0.0,0.0,0.0,0.0,0.0,0.0,0.0,0.0,0.05260386444917074,-0.2223036612034899,-9.834059047012579,0.0,0.0,0.0,0.0,0.0,0.0,0.0,0.0,0.0
1710444780.855606,1926,1710444780,855428934,map,0.001902766624381226,0.00021151132755715417,0.0016335108931381783,0.9999968331871324,0.0,0.0,0.0,0.0,0.0,0.0,0.0,0.0,0.0,-0.022016430547669535,0.00028505341015890994,0.022635620734360935,0.0,0.0,0.0,0.0,0.0,0.0,0.0,0.0,0.0,0.04464229362768116,-0.1329247834820636,-9.84696019236467,0.0,0.0,0.0,0.0,0.0,0.0,0.0,0.0,0.0
1710444780.87164,1927,1710444780,871488333,map,0.0018206612419596655,0.00021113738929297104,0.0017525565281816926,0.9999967845744607,0.0,0.0,0.0,0.0,0.0,0.0,0.0,0.0,0.0,-0.016426163634339713,-4.613324671643546e-06,0.02380573630888833,0.0,0.0,0.0,0.0,0.0,0.0,0.0,0.0,0.0,0.04048466963534212,-0.07564719639904144,-9.85799077641449,0.0,0.0,0.0,0.0,0.0,0.0,0.0,0.0,0.0
1710444780.888227,1928,1710444780,888073683,map,0.0017713459171055292,0.00021128245128750514,0.0018776988915479899,0.9999966459644954,0.0,0.0,0.0,0.0,0.0,0.0,0.0,0.0,0.0,-0.00986822780787364,9.063728199210831e-05,0.025026310064813595,0.0,0.0,0.0,0.0,0.0,0.0,0.0,0.0,0.0,0.058103412212046714,-0.05876924563457116,-9.863576848951709,0.0,0.0,0.0,0.0,0.0,0.0,0.0,0.0,0.0
1710444780.9048936,1929,1710444780,904776096,map,0.0017431342443924882,0.00021208838900094854,0.0020088298850272405,0.9999964405456724,0.0,0.0,0.0,0.0,0.0,0.0,0.0,0.0,0.0,-0.005647509887733144,0.0002175054378672507,0.026224716457458965,0.0,0.0,0.0,0.0,0.0,0.0,0.0,0.0,0.0,0.043867614143944335,-0.0199877531087255,-9.865738448544722,0.0,0.0,0.0,0.0,0.0,0.0,0.0,0.0,0.0
1710444780.921663,1930,1710444780,921466589,map,0.0017027782115838312,0.0002148659765379222,0.0021454687046732574,0.9999962256643831,0.0,0.0,0.0,0.0,0.0,0.0,0.0,0.0,0.0,-0.008075867429684375,0.0006182709238360118,0.0273250979112673,0.0,0.0,0.0,0.0,0.0,0.0,0.0,0.0,0.0,0.04434368821348037,0.09577710716088073,-9.859513954412927,0.0,0.0,0.0,0.0,0.0,0.0,0.0,0.0,0.0
1710444780.9383385,1931,1710444780,938179016,map,0.001629132920450068,0.00021622119390257965,0.0022868844359497298,0.9999960346590878,0.0,0.0,0.0,0.0,0.0,0.0,0.0,0.0,0.0,-0.014734482626899779,0.00034872790058884944,0.02827952102663287,0.0,0.0,0.0,0.0,0.0,0.0,0.0,0.0,0.0,0.0243869655845766,0.24614991265940894,-9.846703147346284,0.0,0.0,0.0,0.0,0.0,0.0,0.0,0.0,0.0
1710444780.9546068,1932,1710444780,954449654,map,0.0015192702938916988,0.00021273751199543165,0.00243349731016755,0.9999958623171231,0.0,0.0,0.0,0.0,0.0,0.0,0.0,0.0,0.0,-0.02198022758837888,-0.0006019293533789678,0.029318855674792456,0.0,0.0,0.0,0.0,0.0,0.0,0.0,0.0,0.0,0.04628507266061967,0.22064955235400502,-9.832810143499339,0.0,0.0,0.0,0.0,0.0,0.0,0.0,0.0,0.0
1710444780.9713676,1933,1710444780,971232176,map,0.0013779440395145363,0.00021033721611924357,0.0025846967702108136,0.9999956881762468,0.0,0.0,0.0,0.0,0.0,0.0,0.0,0.0,0.0,-0.028272626935688383,-0.0003695978519028423,0.03023451607013403,0.0,0.0,0.0,0.0,0.0,0.0,0.0,0.0,0.0,0.06893254262655946,0.2643513091193356,-9.8212179719637,0.0,0.0,0.0,0.0,0.0,0.0,0.0,0.0,0.0
1710444780.988399,1934,1710444780,988111973,map,0.0012165793902107333,0.00021125526004494536,0.0027400722175251672,0.9999954836448239,0.0,0.0,0.0,0.0,0.0,0.0,0.0,0.0,0.0,-0.032278843897024165,0.00030483787026989263,0.031068069730735604,0.0,0.0,0.0,0.0,0.0,0.0,0.0,0.0,0.0,0.028218831199683117,0.3375391955818059,-9.80977481203292,0.0,0.0,0.0,0.0,0.0,0.0,0.0,0.0,0.0
1710444781.0049443,1935,1710444781,4680395,map,0.0010548867742923573,0.00021245530855123107,0.002900212896155866,0.9999952154094499,0.0,0.0,0.0,0.0,0.0,0.0,0.0,0.0,0.0,-0.03234447891407951,0.00036241609401313886,0.03202107356497695,0.0,0.0,0.0,0.0,0.0,0.0,0.0,0.0,0.0,0.016842987970805367,0.41373809871669576,-9.79987205956739,0.0,0.0,0.0,0.0,0.0,0.0,0.0,0.0,0.0
1710444781.0217307,1936,1710444781,21635532,map,0.0009218641001287738,0.00021277774934548476,0.0030650516358808532,0.9999948551621052,0.0,0.0,0.0,0.0,0.0,0.0,0.0,0.0,0.0,-0.026611177476704963,0.00017205341603145918,0.03296210219799087,0.0,0.0,0.0,0.0,0.0,0.0,0.0,0.0,0.0,0.03653680786728887,0.47615358119706375,-9.79257514754186,0.0,0.0,0.0,0.0,0.0,0.0,0.0,0.0,0.0
1710444781.0384073,1937,1710444781,38225651,map,0.0008523427280863029,0.00021463243425507556,0.0032364571326468834,0.9999943763791977,0.0,0.0,0.0,0.0,0.0,0.0,0.0,0.0,0.0,-0.01391034801828304,0.00044279119892942626,0.034277947055378497,0.0,0.0,0.0,0.0,0.0,0.0,0.0,0.0,0.0,0.05550037722200459,0.5034289694857994,-9.789609350943866,0.0,0.0,0.0,0.0,0.0,0.0,0.0,0.0,0.0
1710444781.055148,1938,1710444781,55067301,map,0.0008667522481584554,0.0002230037833729736,0.0034137568911349115,0.9999937726174805,0.0,0.0,0.0,0.0,0.0,0.0,0.0,0.0,0.0,0.002879497981644855,0.0016956937505628864,0.0354593103694199,0.0,0.0,0.0,0.0,0.0,0.0,0.0,0.0,0.0,0.04470171931234055,0.508144270009028,-9.791302029642832,0.0,0.0,0.0,0.0,0.0,0.0,0.0,0.0,0.0
1710444781.0717525,1939,1710444781,71592331,map,0.0009701475695702923,0.00023178296861539155,0.003593383196192509,0.9999930463196002,0.0,0.0,0.0,0.0,0.0,0.0,0.0,0.0,0.0,0.020676735307100454,0.0017201179619166895,0.03592844536037931,0.0,0.0,0.0,0.0,0.0,0.0,0.0,0.0,0.0,0.026438750064028425,0.493500387371965,-9.79320658421746,0.0,0.0,0.0,0.0,0.0,0.0,0.0,0.0,0.0
1710444781.0884366,1940,1710444781,88299036,map,0.0011575706819008627,0.00024331789966065096,0.0037745541712484437,0.9999921767530607,0.0,0.0,0.0,0.0,0.0,0.0,0.0,0.0,0.0,0.03748402155457353,0.0022142586740081737,0.036240604007796266,0.0,0.0,0.0,0.0,0.0,0.0,0.0,0.0,0.0,0.09150156799607623,0.4320235470349892,-9.797162842326513,0.0,0.0,0.0,0.0,0.0,0.0,0.0,0.0,0.0
1710444781.1048672,1941,1710444781,104743004,map,0.0014164002591962933,0.00025766884650818653,0.003958256498756799,0.9999911297719403,0.0,0.0,0.0,0.0,0.0,0.0,0.0,0.0,0.0,0.05176714734619521,0.0027268665295755883,0.03674953720684622,0.0,0.0,0.0,0.0,0.0,0.0,0.0,0.0,0.0,0.09362584499784486,0.3496271808590519,-9.801460895804217,0.0,0.0,0.0,0.0,0.0,0.0,0.0,0.0,0.0
1710444781.1217616,1942,1710444781,121629238,map,0.0017275848602872283,0.0002737604257251891,0.00414691333253637,0.9999898717565056,0.0,0.0,0.0,0.0,0.0,0.0,0.0,0.0,0.0,0.062239170218263716,0.0030371906802258144,0.03774256296650049,0.0,0.0,0.0,0.0,0.0,0.0,0.0,0.0,0.0,0.09403232430873312,0.23497244886020674,-9.807864669523111,0.0,0.0,0.0,0.0,0.0,0.0,0.0,0.0,0.0
1710444781.137978,1943,1710444781,137818575,map,0.0020588376338046338,0.00030107445074166125,0.004341341239181063,0.9999884115818631,0.0,0.0,0.0,0.0,0.0,0.0,0.0,0.0,0.0,0.06626137466882064,0.0052681584801052075,0.038893354866816526,0.0,0.0,0.0,0.0,0.0,0.0,0.0,0.0,0.0,0.08212893200006752,0.016091536199051563,-9.813835378265377,0.0,0.0,0.0,0.0,0.0,0.0,0.0,0.0,0.0
1710444781.154995,1944,1710444781,154831648,map,0.002379208755675187,0.0003295340509485247,0.004540460559225623,0.9999868074084359,0.0,0.0,0.0,0.0,0.0,0.0,0.0,0.0,0.0,0.0640857683711178,0.0055085367404934344,0.03983060496810984,0.0,0.0,0.0,0.0,0.0,0.0,0.0,0.0,0.0,0.030211229770656007,-0.11525194893791396,-9.818216319448284,0.0,0.0,0.0,0.0,0.0,0.0,0.0,0.0,0.0
1710444781.171628,1945,1710444781,171399593,map,0.0026674159651045065,0.0003571394295074588,0.0047435189121520374,0.9999851280753265,0.0,0.0,0.0,0.0,0.0,0.0,0.0,0.0,0.0,0.057652077744840706,0.005367727101431937,0.04061697350571582,0.0,0.0,0.0,0.0,0.0,0.0,0.0,0.0,0.0,0.0854533375670916,-0.2208927657776223,-9.82271274462496,0.0,0.0,0.0,0.0,0.0,0.0,0.0,0.0,0.0
1710444781.1880765,1946,1710444781,187772274,map,0.00291102025860522,0.0003826880376584739,0.004950683418506475,0.999983434985105,0.0,0.0,0.0,0.0,0.0,0.0,0.0,0.0,0.0,0.04872944388353524,0.004999273171015978,0.04143644519195726,0.0,0.0,0.0,0.0,0.0,0.0,0.0,0.0,0.0,0.10166813439398843,-0.35705150853877243,-9.827973785599076,0.0,0.0,0.0,0.0,0.0,0.0,0.0,0.0,0.0
1710444781.2046833,1947,1710444781,204566956,map,0.00310628137219621,0.00040567273234241006,0.005162129994765278,0.9999817692636143,0.0,0.0,0.0,0.0,0.0,0.0,0.0,0.0,0.0,0.0390581621619766,0.00453501936131471,0.04229094254158789,0.0,0.0,0.0,0.0,0.0,0.0,0.0,0.0,0.0,0.11564847235183531,-0.4801359672686697,-9.830603374763605,0.0,0.0,0.0,0.0,0.0,0.0,0.0,0.0,0.0
1710444781.2219577,1948,1710444781,221808434,map,0.003254901801574132,0.00042653199714892285,0.005378313200657388,0.999980148518876,0.0,0.0,0.0,0.0,0.0,0.0,0.0,0.0,0.0,0.02972764827677584,0.004159200649137447,0.04323600815108576,0.0,0.0,0.0,0.0,0.0,0.0,0.0,0.0,0.0,0.12300119676764143,-0.5738441850840548,-9.831321424434528,0.0,0.0,0.0,0.0,0.0,0.0,0.0,0.0,0.0
1710444781.2386591,1949,1710444781,238527060,map,0.0033631476481678015,0.000445056917046423,0.005600408635217679,0.9999785630629068,0.0,0.0,0.0,0.0,0.0,0.0,0.0,0.0,0.0,0.021649922486475355,0.0037379976352846975,0.04441668124386567,0.0,0.0,0.0,0.0,0.0,0.0,0.0,0.0,0.0,0.1243681678079127,-0.6565045020713195,-9.830829686138486,0.0,0.0,0.0,0.0,0.0,0.0,0.0,0.0,0.0
1710444781.2547677,1950,1710444781,254536629,map,0.003441185125322875,0.0004624097983673334,0.005829603565934494,0.9999769798072232,0.0,0.0,0.0,0.0,0.0,0.0,0.0,0.0,0.0,0.015606450415359957,0.003540974414347361,0.0458347752727996,0.0,0.0,0.0,0.0,0.0,0.0,0.0,0.0,0.0,0.1265636185078998,-0.7131379341054385,-9.82613395794031,0.0,0.0,0.0,0.0,0.0,0.0,0.0,0.0,0.0
1710444781.2713423,1951,1710444781,271122694,map,0.003498986470279379,0.0004780878226075971,0.006067905760366755,0.9999753542189918,0.0,0.0,0.0,0.0,0.0,0.0,0.0,0.0,0.0,0.011556591834829464,0.003235053390726457,0.04765560603163494,0.0,0.0,0.0,0.0,0.0,0.0,0.0,0.0,0.0,0.1371410578148656,-0.7344411366325821,-9.819995611142575,0.0,0.0,0.0,0.0,0.0,0.0,0.0,0.0,0.0
1710444781.2879763,1952,1710444781,287787914,map,0.003544461207705486,0.0004900951483261907,0.006314928114056638,0.999973658795274,0.0,0.0,0.0,0.0,0.0,0.0,0.0,0.0,0.0,0.009086239432817273,0.002521490793063949,0.049401142152980276,0.0,0.0,0.0,0.0,0.0,0.0,0.0,0.0,0.0,0.15720596483340676,-0.7473235682225767,-9.8129976536493,0.0,0.0,0.0,0.0,0.0,0.0,0.0,0.0,0.0
1710444781.3043702,1953,1710444781,304199219,map,0.0035773741668755792,0.0005001420264870294,0.006572707540672893,0.9999718754883101,0.0,0.0,0.0,0.0,0.0,0.0,0.0,0.0,0.0,0.006570549805159782,0.0021523604664603515,0.051552813403250075,0.0,0.0,0.0,0.0,0.0,0.0,0.0,0.0,0.0,0.14618622639370235,-0.7423202416549136,-9.802684187947872,0.0,0.0,0.0,0.0,0.0,0.0,0.0,0.0,0.0
1710444781.321527,1954,1710444781,321420670,map,0.0035726840074164407,0.0005107075881150569,0.006841780119365313,0.9999700821282309,0.0,0.0,0.0,0.0,0.0,0.0,0.0,0.0,0.0,-0.0009503703927632482,0.002311656749209592,0.05380734277310811,0.0,0.0,0.0,0.0,0.0,0.0,0.0,0.0,0.0,0.12322037224743261,-0.781311965690078,-9.79304965637109,0.0,0.0,0.0,0.0,0.0,0.0,0.0,0.0,0.0
1710444781.3378255,1955,1710444781,337692022,map,0.0034958536414307923,0.0005195492780222257,0.007126431019046359,0.9999683610278859,0.0,0.0,0.0,0.0,0.0,0.0,0.0,0.0,0.0,-0.015381950252935681,0.0020726083409997984,0.0569168268448443,0.0,0.0,0.0,0.0,0.0,0.0,0.0,0.0,0.0,0.08731400834232157,-0.7464773016326666,-9.779419285477713,0.0,0.0,0.0,0.0,0.0,0.0,0.0,0.0,0.0
1710444781.354173,1956,1710444781,354055643,map,0.0033034050533247605,0.0005162526747733885,0.007456669935764223,0.9999666089783691,0.0,0.0,0.0,0.0,0.0,0.0,0.0,0.0,0.0,-0.038526235863871855,-0.00016664957177597202,0.06603046873786489,0.0,0.0,0.0,0.0,0.0,0.0,0.0,0.0,0.0,0.03256974587118529,-0.6375152722343068,-9.7639821488754,0.0,0.0,0.0,0.0,0.0,0.0,0.0,0.0,0.0
1710444781.3712788,1957,1710444781,371058702,map,0.0030018163789583695,0.0005111993196684835,0.007814639679961285,0.9999648289716768,0.0,0.0,0.0,0.0,0.0,0.0,0.0,0.0,0.0,-0.060358922643802444,-0.00034577859915710575,0.07156631272498092,0.0,0.0,0.0,0.0,0.0,0.0,0.0,0.0,0.0,-0.21110814939228295,-0.46177925094893035,-9.74833639602628,0.0,0.0,0.0,0.0,0.0,0.0,0.0,0.0,0.0
1710444781.3881752,1958,1710444781,387952566,map,0.0026298054363362274,0.0004961603705036224,0.008180700491604355,0.9999629563577446,0.0,0.0,0.0,0.0,0.0,0.0,0.0,0.0,0.0,-0.07445856770194746,-0.0022335425195859765,0.0731826838043258,0.0,0.0,0.0,0.0,0.0,0.0,0.0,0.0,0.0,-0.10849914391086778,-0.23084624621722982,-9.744693062287434,0.0,0.0,0.0,0.0,0.0,0.0,0.0,0.0,0.0
1710444781.4044857,1959,1710444781,404288530,map,0.002235293518061161,0.00048632212476597936,0.008556184855334766,0.9999607785580396,0.0,0.0,0.0,0.0,0.0,0.0,0.0,0.0,0.0,-0.07895124671424436,-0.0011540250667487486,0.07506323242194592,0.0,0.0,0.0,0.0,0.0,0.0,0.0,0.0,0.0,0.14625126682942557,-0.058446280443332804,-9.748199025953049,0.0,0.0,0.0,0.0,0.0,0.0,0.0,0.0,0.0
1710444781.421444,1960,1710444781,421341181,map,0.0018560887207495066,0.0004907006732218363,0.008939154843184503,0.9999582019555616,0.0,0.0,0.0,0.0,0.0,0.0,0.0,0.0,0.0,-0.07586723508596707,0.0016670046187678006,0.07655720175107225,0.0,0.0,0.0,0.0,0.0,0.0,0.0,0.0,0.0,0.0535788278301873,0.08568880323308617,-9.759353010238145,0.0,0.0,0.0,0.0,0.0,0.0,0.0,0.0,0.0
1710444781.4387195,1961,1710444781,438579559,map,0.0015242733675353572,0.0004923989961841959,0.00933360346008291,0.9999551579847866,0.0,0.0,0.0,0.0,0.0,0.0,0.0,0.0,0.0,-0.06639526348867698,0.001053426031907168,0.07885902930004166,0.0,0.0,0.0,0.0,0.0,0.0,0.0,0.0,0.0,0.00546122256745831,0.2711108116650475,-9.769777768981953,0.0,0.0,0.0,0.0,0.0,0.0,0.0,0.0,0.0
1710444781.4547632,1962,1710444781,454542875,map,0.001265660048134624,0.0004879531213994968,0.009740918865534649,0.9999516360834902,0.0,0.0,0.0,0.0,0.0,0.0,0.0,0.0,0.0,-0.05176756392057865,-0.0003029376655003753,0.08144181625290778,0.0,0.0,0.0,0.0,0.0,0.0,0.0,0.0,0.0,0.12336825653366411,0.43079033048562065,-9.784421418788384,0.0,0.0,0.0,0.0,0.0,0.0,0.0,0.0,0.0
1710444781.4711504,1963,1710444781,470951557,map,0.0010809191620804114,0.0004917775409008855,0.010157648528890867,0.9999477046050853,0.0,0.0,0.0,0.0,0.0,0.0,0.0,0.0,0.0,-0.03697912305263632,0.0012152200251810046,0.0833307924423592,0.0,0.0,0.0,0.0,0.0,0.0,0.0,0.0,0.0,0.15413049500301806,0.5750307772992461,-9.799914434742522,0.0,0.0,0.0,0.0,0.0,0.0,0.0,0.0,0.0
1710444781.4876044,1964,1710444781,487410069,map,0.0009570718263147525,0.0004925933549695381,0.010582657098888962,0.9999434227665249,0.0,0.0,0.0,0.0,0.0,0.0,0.0,0.0,0.0,-0.0248076040490785,0.0004965125483729669,0.08499367484899477,0.0,0.0,0.0,0.0,0.0,0.0,0.0,0.0,0.0,0.05572356266374542,0.7406391753837486,-9.81187075338754,0.0,0.0,0.0,0.0,0.0,0.0,0.0,0.0,0.0
1710444781.5044994,1965,1710444781,504236221,map,0.0008979701096515888,0.0004959875694827736,0.011016327681224425,0.9999387922120199,0.0,0.0,0.0,0.0,0.0,0.0,0.0,0.0,0.0,-0.011854712611859698,0.0008822212460632381,0.08673259284497686,0.0,0.0,0.0,0.0,0.0,0.0,0.0,0.0,0.0,0.11633165279335642,0.8852505868787133,-9.823629631656118,0.0,0.0,0.0,0.0,0.0,0.0,0.0,0.0,0.0
1710444781.5212924,1966,1710444781,521173239,map,0.000886600489222643,0.0005042316182953041,0.011460420994080796,0.9999338070295883,0.0,0.0,0.0,0.0,0.0,0.0,0.0,0.0,0.0,-0.002299557462483567,0.001752989078128026,0.08882162452260743,0.0,0.0,0.0,0.0,0.0,0.0,0.0,0.0,0.0,0.0870029366127334,0.8216088072843392,-9.839479344139392,0.0,0.0,0.0,0.0,0.0,0.0,0.0,0.0,0.0
1710444781.538001,1967,1710444781,537866592,map,0.0008957273482615334,0.0005098472024334917,0.01191295487109195,0.9999285070616735,0.0,0.0,0.0,0.0,0.0,0.0,0.0,0.0,0.0,0.0017928902634755184,0.0011837123087212876,0.09051284960050263,0.0,0.0,0.0,0.0,0.0,0.0,0.0,0.0,0.0,0.05105554494882674,0.8264043325124113,-9.849083607733935,0.0,0.0,0.0,0.0,0.0,0.0,0.0,0.0,0.0
1710444781.555002,1968,1710444781,554753304,map,0.0008976459821651178,0.0005115320272623125,0.012373863227095215,0.9999229070660963,0.0,0.0,0.0,0.0,0.0,0.0,0.0,0.0,0.0,0.00034152667980966904,0.00041566769565270215,0.09218831972935111,0.0,0.0,0.0,0.0,0.0,0.0,0.0,0.0,0.0,0.09043917205136011,0.83799120715116,-9.85596747821724,0.0,0.0,0.0,0.0,0.0,0.0,0.0,0.0,0.0
1710444781.5717561,1969,1710444781,571609735,map,0.0008766055725582293,0.0004996937120838907,0.01284104489979587,0.999917041276298,0.0,0.0,0.0,0.0,0.0,0.0,0.0,0.0,0.0,-0.0042827544428858015,-0.0022329386409494635,0.09344357612092635,0.0,0.0,0.0,0.0,0.0,0.0,0.0,0.0,0.0,0.10488562158793983,0.85706699177584,-9.857913010983204,0.0,0.0,0.0,0.0,0.0,0.0,0.0,0.0,0.0
1710444781.5881336,1970,1710444781,587925196,map,0.000845480757056868,0.0004934861481407115,0.013313907004075694,0.9999108867864165,0.0,0.0,0.0,0.0,0.0,0.0,0.0,0.0,0.0,-0.006286056780130524,-0.0010809297255466802,0.09457832860613294,0.0,0.0,0.0,0.0,0.0,0.0,0.0,0.0,0.0,0.1469540037082644,0.8759497598060987,-9.859058072034305,0.0,0.0,0.0,0.0,0.0,0.0,0.0,0.0,0.0
1710444781.6045992,1971,1710444781,604481936,map,0.000811971786295038,0.0005024564255674386,0.013793355911656528,0.9999044112174189,0.0,0.0,0.0,0.0,0.0,0.0,0.0,0.0,0.0,-0.006724477636530197,0.0019616108118839224,0.09589372509931861,0.0,0.0,0.0,0.0,0.0,0.0,0.0,0.0,0.0,0.04387650888801836,0.8697110339018863,-9.862655770969162,0.0,0.0,0.0,0.0,0.0,0.0,0.0,0.0,0.0
1710444781.6223967,1972,1710444781,622215748,map,0.0007749759711874318,0.0005136482764986137,0.01427914023348719,0.9998976156246622,0.0,0.0,0.0,0.0,0.0,0.0,0.0,0.0,0.0,-0.007416469303154274,0.0024161843761917917,0.09716088230863712,0.0,0.0,0.0,0.0,0.0,0.0,0.0,0.0,0.0,-0.012383504648172542,0.8806991263612588,-9.860527698987244,0.0,0.0,0.0,0.0,0.0,0.0,0.0,0.0,0.0
1710444781.6381905,1973,1710444781,638056517,map,0.0007534027704069138,0.0005267834480673106,0.01477187617919606,0.9998904672800971,0.0,0.0,0.0,0.0,0.0,0.0,0.0,0.0,0.0,-0.004327559459882312,0.002763348608339739,0.09855332561000396,0.0,0.0,0.0,0.0,0.0,0.0,0.0,0.0,0.0,0.057304431727364644,0.8909073817205835,-9.851905049339722,0.0,0.0,0.0,0.0,0.0,0.0,0.0,0.0,0.0
1710444781.6546695,1974,1710444781,654517889,map,0.0007680915527038518,0.0005419056559879383,0.01527379405977363,0.9998829069389307,0.0,0.0,0.0,0.0,0.0,0.0,0.0,0.0,0.0,0.0029288351821346436,0.0030586105062718454,0.10039414530072348,0.0,0.0,0.0,0.0,0.0,0.0,0.0,0.0,0.0,0.07239724820385719,0.8669705009409268,-9.844786951240026,0.0,0.0,0.0,0.0,0.0,0.0,0.0,0.0,0.0
1710444781.6713467,1975,1710444781,671264172,map,0.0008182823438750311,0.0005596285186711831,0.01578468414573034,0.9998749226660034,0.0,0.0,0.0,0.0,0.0,0.0,0.0,0.0,0.0,0.010035203144676052,0.0034753122416863887,0.10219299027473397,0.0,0.0,0.0,0.0,0.0,0.0,0.0,0.0,0.0,0.07953022563616605,0.8311043680772905,-9.83709795242921,0.0,0.0,0.0,0.0,0.0,0.0,0.0,0.0,0.0
1710444781.6883929,1976,1710444781,688127518,map,0.0009005181623092383,0.0005761921722901631,0.016304563969439127,0.9998665002205976,0.0,0.0,0.0,0.0,0.0,0.0,0.0,0.0,0.0,0.0164389531259722,0.003147275821968933,0.10399578874714388,0.0,0.0,0.0,0.0,0.0,0.0,0.0,0.0,0.0,0.07840212120347825,0.7945548190993296,-9.824821724495004,0.0,0.0,0.0,0.0,0.0,0.0,0.0,0.0,0.0
1710444781.7045248,1977,1710444781,704344273,map,0.0010128395310591979,0.0005937419221903349,0.01683230395467193,0.9998576374515482,0.0,0.0,0.0,0.0,0.0,0.0,0.0,0.0,0.0,0.022457570296517668,0.0032511353860265905,0.10557223061348459,0.0,0.0,0.0,0.0,0.0,0.0,0.0,0.0,0.0,0.10373540188313415,0.7510192743018428,-9.812374598876476,0.0,0.0,0.0,0.0,0.0,0.0,0.0,0.0,0.0
1710444781.7215893,1978,1710444781,721481800,map,0.0011495465327370105,0.0006148549514551064,0.01736990444692094,0.9998482819486477,0.0,0.0,0.0,0.0,0.0,0.0,0.0,0.0,0.0,0.027344554185738657,0.003886502327759114,0.10754771829708012,0.0,0.0,0.0,0.0,0.0,0.0,0.0,0.0,0.0,0.09736605435605741,0.6931855567009529,-9.802525863117706,0.0,0.0,0.0,0.0,0.0,0.0,0.0,0.0,0.0
1710444781.7385874,1979,1710444781,738478661,map,0.0013042949537436356,0.000635649096959868,0.017916029864993778,0.9998384422689377,0.0,0.0,0.0,0.0,0.0,0.0,0.0,0.0,0.0,0.030950280078181486,0.0037642825676046316,0.10925636808979208,0.0,0.0,0.0,0.0,0.0,0.0,0.0,0.0,0.0,0.07750507752677989,0.6210573624829524,-9.793997742707017,0.0,0.0,0.0,0.0,0.0,0.0,0.0,0.0,0.0
1710444781.7547324,1980,1710444781,754625320,map,0.0014733264059430123,0.0006544890520679039,0.018471025198279017,0.999828096315315,0.0,0.0,0.0,0.0,0.0,0.0,0.0,0.0,0.0,0.033798637152991105,0.0033265631527815286,0.11103422508699463,0.0,0.0,0.0,0.0,0.0,0.0,0.0,0.0,0.0,0.11300665218945195,0.5385271250597357,-9.787747171544371,0.0,0.0,0.0,0.0,0.0,0.0,0.0,0.0,0.0
1710444781.771652,1981,1710444781,771395922,map,0.001654230096143038,0.0006742028790595999,0.01903221986146318,0.9998172750960107,0.0,0.0,0.0,0.0,0.0,0.0,0.0,0.0,0.0,0.03617513785998864,0.0034608821121903414,0.11227686683169319,0.0,0.0,0.0,0.0,0.0,0.0,0.0,0.0,0.0,0.1305650650295957,0.4518839026794149,-9.783766233388262,0.0,0.0,0.0,0.0,0.0,0.0,0.0,0.0,0.0
1710444781.7883034,1982,1710444781,788180113,map,0.0018385276816190793,0.000696956610909649,0.01959733358313666,0.9998060204779113,0.0,0.0,0.0,0.0,0.0,0.0,0.0,0.0,0.0,0.03686462828190154,0.004057720176381011,0.11306151518294649,0.0,0.0,0.0,0.0,0.0,0.0,0.0,0.0,0.0,0.14172249993742678,0.34910586488721973,-9.782869835452772,0.0,0.0,0.0,0.0,0.0,0.0,0.0,0.0,0.0
1710444781.8045402,1983,1710444781,804436445,map,0.0020159073965873423,0.0007183449042945133,0.020166569250247995,0.9997943436440525,0.0,0.0,0.0,0.0,0.0,0.0,0.0,0.0,0.0,0.03547567405442523,0.0038127355344937906,0.11388700864088121,0.0,0.0,0.0,0.0,0.0,0.0,0.0,0.0,0.0,0.15306176101740002,0.25718995545367923,-9.784491733639427,0.0,0.0,0.0,0.0,0.0,0.0,0.0,0.0,0.0
1710444781.8213775,1984,1710444781,821235180,map,0.0021801779238581277,0.0007389849166166464,0.020740656274097265,0.9997822392415426,0.0,0.0,0.0,0.0,0.0,0.0,0.0,0.0,0.0,0.032850869359391,0.0037166656754851067,0.11485728900787107,0.0,0.0,0.0,0.0,0.0,0.0,0.0,0.0,0.0,0.18128791956079993,0.17825424464795137,-9.78547707287657,0.0,0.0,0.0,0.0,0.0,0.0,0.0,0.0,0.0
1710444781.837743,1985,1710444781,837634325,map,0.0023286122073438334,0.0007585430088285427,0.021320347599506684,0.999769695957988,0.0,0.0,0.0,0.0,0.0,0.0,0.0,0.0,0.0,0.029679250998191124,0.0035668729901214926,0.11597793806400788,0.0,0.0,0.0,0.0,0.0,0.0,0.0,0.0,0.0,0.1774194531521484,0.09300239175267333,-9.790882934504161,0.0,0.0,0.0,0.0,0.0,0.0,0.0,0.0,0.0
1710444781.8544087,1986,1710444781,854292393,map,0.002462964630331094,0.0007763206189793092,0.021906658259555855,0.9997566851266488,0.0,0.0,0.0,0.0,0.0,0.0,0.0,0.0,0.0,0.02685529753471054,0.0032725985236225948,0.11730227650791152,0.0,0.0,0.0,0.0,0.0,0.0,0.0,0.0,0.0,0.18179715471508223,0.014927848697341714,-9.795481339497913,0.0,0.0,0.0,0.0,0.0,0.0,0.0,0.0,0.0
1710444781.8712997,1987,1710444781,871165276,map,0.002585619717466606,0.0007931041272299217,0.022500437009160528,0.9997431749659094,0.0,0.0,0.0,0.0,0.0,0.0,0.0,0.0,0.0,0.024511191879214172,0.0031276409412980713,0.11879644845399144,0.0,0.0,0.0,0.0,0.0,0.0,0.0,0.0,0.0,0.19043572142862547,-0.054406319721860524,-9.802786167764948,0.0,0.0,0.0,0.0,0.0,0.0,0.0,0.0,0.0
1710444781.8876958,1988,1710444781,887580156,map,0.0026985966384947017,0.0008079408649454055,0.023102913664638774,0.9997291234069086,0.0,0.0,0.0,0.0,0.0,0.0,0.0,0.0,0.0,0.022566374137895744,0.0027855644100279447,0.12053755995770567,0.0,0.0,0.0,0.0,0.0,0.0,0.0,0.0,0.0,0.18666906658053872,-0.12014491378572713,-9.808908682079666,0.0,0.0,0.0,0.0,0.0,0.0,0.0,0.0,0.0
1710444781.9045157,1989,1710444781,904334784,map,0.0028007404490916557,0.0008212429088860397,0.023715528977022306,0.9997144867902843,0.0,0.0,0.0,0.0,0.0,0.0,0.0,0.0,0.0,0.02039205133772229,0.0025332270548410287,0.12256657943696464,0.0,0.0,0.0,0.0,0.0,0.0,0.0,0.0,0.0,0.195364609496463,-0.17638032185342498,-9.814455173409344,0.0,0.0,0.0,0.0,0.0,0.0,0.0,0.0,0.0
1710444781.9211166,1990,1710444781,921026468,map,0.0028809870587957033,0.0008345223839720847,0.024338627727333143,0.9996992721245265,0.0,0.0,0.0,0.0,0.0,0.0,0.0,0.0,0.0,0.016012265051801665,0.002636026241320961,0.12466187360470092,0.0,0.0,0.0,0.0,0.0,0.0,0.0,0.0,0.0,0.1919376700027416,-0.2161631607224036,-9.818925987216435,0.0,0.0,0.0,0.0,0.0,0.0,0.0,0.0,0.0
1710444781.937802,1991,1710444781,937671185,map,0.0029229076094767245,0.000852955138016504,0.024977860287387164,0.9996833676590318,0.0,0.0,0.0,0.0,0.0,0.0,0.0,0.0,0.0,0.00837132278272402,0.0038577165850476607,0.12788170677506247,0.0,0.0,0.0,0.0,0.0,0.0,0.0,0.0,0.0,0.17646039558215515,-0.24137374147767124,-9.818325749845604,0.0,0.0,0.0,0.0,0.0,0.0,0.0,0.0,0.0
1710444781.954804,1992,1710444781,954688311,map,0.0029219689678488675,0.000865287751093596,0.025635045522166965,0.999666723371112,0.0,0.0,0.0,0.0,0.0,0.0,0.0,0.0,0.0,-0.00023031870046868316,0.002857297613421405,0.13147122070662146,0.0,0.0,0.0,0.0,0.0,0.0,0.0,0.0,0.0,0.1767268447753097,-0.24926597232691516,-9.816495701073407,0.0,0.0,0.0,0.0,0.0,0.0,0.0,0.0,0.0
1710444781.9712358,1993,1710444781,971035242,map,0.002875857060253047,0.0008640897009841511,0.02632034202085976,0.9996490496124442,0.0,0.0,0.0,0.0,0.0,0.0,0.0,0.0,0.0,-0.00933398992468243,0.0003940293867387177,0.13709698399370515,0.0,0.0,0.0,0.0,0.0,0.0,0.0,0.0,0.0,0.20515571421669662,-0.21321715472817898,-9.81450406784219,0.0,0.0,0.0,0.0,0.0,0.0,0.0,0.0,0.0
1710444781.9875793,1994,1710444781,987435818,map,0.0027799458530877847,0.000865728981578434,0.0270456702203105,0.9996299586030416,0.0,0.0,0.0,0.0,0.0,0.0,0.0,0.0,0.0,-0.019282153330213776,0.001239122865562957,0.14509784025262742,0.0,0.0,0.0,0.0,0.0,0.0,0.0,0.0,0.0,0.0884339273230822,-0.19125502695887686,-9.811688679832852,0.0,0.0,0.0,0.0,0.0,0.0,0.0,0.0,0.0
1710444782.005158,1995,1710444782,5037069,map,0.0026330801220092047,0.0008723603876330532,0.02780562888003939,0.9996095001944564,0.0,0.0,0.0,0.0,0.0,0.0,0.0,0.0,0.0,-0.029448542760570236,0.002523895231090688,0.1520174227360621,0.0,0.0,0.0,0.0,0.0,0.0,0.0,0.0,0.0,-0.16125402869753963,-0.12478240522192542,-9.807626250955334,0.0,0.0,0.0,0.0,0.0,0.0,0.0,0.0,0.0
1710444782.0219834,1996,1710444782,21842957,map,0.002447080034100097,0.0008680394395236687,0.028575677511873825,0.9995882597157569,0.0,0.0,0.0,0.0,0.0,0.0,0.0,0.0,0.0,-0.03733312238212881,0.00055099019040304,0.15403765099508931,0.0,0.0,0.0,0.0,0.0,0.0,0.0,0.0,0.0,-0.12318190926357417,-0.019876692896977684,-9.802289772856255,0.0,0.0,0.0,0.0,0.0,0.0,0.0,0.0,0.0
1710444782.0383914,1997,1710444782,38282156,map,0.002219121986601946,0.0008678912744219422,0.029358175755488568,0.999566115761561,0.0,0.0,0.0,0.0,0.0,0.0,0.0,0.0,0.0,-0.045699980186425966,0.0016242369744135247,0.15652265561825646,0.0,0.0,0.0,0.0,0.0,0.0,0.0,0.0,0.0,0.20867475459651325,0.13357248919811385,-9.797036648123647,0.0,0.0,0.0,0.0,0.0,0.0,0.0,0.0,0.0
1710444782.0552552,1998,1710444782,55061102,map,0.0019717293119567805,0.0008626397230544974,0.030152283128745336,0.9995429995544727,0.0,0.0,0.0,0.0,0.0,0.0,0.0,0.0,0.0,-0.04961607024949942,0.0007197948764066433,0.15884788338538985,0.0,0.0,0.0,0.0,0.0,0.0,0.0,0.0,0.0,0.11804414119548053,0.3543239413336655,-9.790025186453681,0.0,0.0,0.0,0.0,0.0,0.0,0.0,0.0,0.0
1710444782.0718732,1999,1710444782,71694851,map,0.0017198771858910854,0.0008644130742090755,0.030957515537192365,0.9995188477683985,0.0,0.0,0.0,0.0,0.0,0.0,0.0,0.0,0.0,-0.050467864692291024,0.002154353624844523,0.1610749450090284,0.0,0.0,0.0,0.0,0.0,0.0,0.0,0.0,0.0,0.1748494422542196,0.45109456590765823,-9.788987693154837,0.0,0.0,0.0,0.0,0.0,0.0,0.0,0.0,0.0
1710444782.0881765,2000,1710444782,88009357,map,0.001476578397926678,0.0008646979016404974,0.0317748334430508,0.9994935877600417,0.0,0.0,0.0,0.0,0.0,0.0,0.0,0.0,0.0,-0.04876868816893191,0.0018089599295215018,0.1634996318023485,0.0,0.0,0.0,0.0,0.0,0.0,0.0,0.0,0.0,0.10307125068466758,0.5428604814821066,-9.78800188825643,0.0,0.0,0.0,0.0,0.0,0.0,0.0,0.0,0.0
1710444782.1048932,2001,1710444782,104698896,map,0.0012563171141179352,0.0008617020514848236,0.032604055441467564,0.9994671854071313,0.0,0.0,0.0,0.0,0.0,0.0,0.0,0.0,0.0,-0.04418545133044506,0.0010136852685197811,0.16589123997357696,0.0,0.0,0.0,0.0,0.0,0.0,0.0,0.0,0.0,0.16011682204230882,0.6655110603281631,-9.789361619150785,0.0,0.0,0.0,0.0,0.0,0.0,0.0,0.0,0.0
1710444782.121741,2002,1710444782,121598244,map,0.0010696688518271095,0.0008602938247041727,0.03344436525750165,0.9994396380650536,0.0,0.0,0.0,0.0,0.0,0.0,0.0,0.0,0.0,-0.037457798084822184,0.0011200027144143987,0.16812046766642832,0.0,0.0,0.0,0.0,0.0,0.0,0.0,0.0,0.0,0.1811403858847593,0.7733885500879809,-9.793550707892434,0.0,0.0,0.0,0.0,0.0,0.0,0.0,0.0,0.0
1710444782.1383252,2003,1710444782,138144255,map,0.0009211525402667016,0.0008622446988778883,0.03429560766224771,0.9994109361554705,0.0,0.0,0.0,0.0,0.0,0.0,0.0,0.0,0.0,-0.0298152186510861,0.0015450208999264455,0.17031934552918632,0.0,0.0,0.0,0.0,0.0,0.0,0.0,0.0,0.0,0.1471673388681055,0.8651447886392621,-9.797582868787716,0.0,0.0,0.0,0.0,0.0,0.0,0.0,0.0,0.0
1710444782.1547961,2004,1710444782,154604912,map,0.0008103586962496513,0.0008660250704694462,0.03515711898682116,0.9993810936294059,0.0,0.0,0.0,0.0,0.0,0.0,0.0,0.0,0.0,-0.022264293992169604,0.0016602507458766866,0.172385865892945,0.0,0.0,0.0,0.0,0.0,0.0,0.0,0.0,0.0,0.133922335413481,0.9463874872161431,-9.803984779861548,0.0,0.0,0.0,0.0,0.0,0.0,0.0,0.0,0.0
1710444782.171682,2005,1710444782,171561003,map,0.0007313899749662422,0.0008712928457002518,0.03602787506254478,0.9993501379076101,0.0,0.0,0.0,0.0,0.0,0.0,0.0,0.0,0.0,-0.015894254415761457,0.0017408052373429313,0.1742467240555498,0.0,0.0,0.0,0.0,0.0,0.0,0.0,0.0,0.0,0.1389529431829228,1.0056055429988702,-9.809597395090883,0.0,0.0,0.0,0.0,0.0,0.0,0.0,0.0,0.0
1710444782.1880193,2006,1710444782,187813282,map,0.0006760061229009697,0.0008785262463155607,0.036907563535491725,0.9993180689656472,0.0,0.0,0.0,0.0,0.0,0.0,0.0,0.0,0.0,-0.011167791207900029,0.0019692504969958417,0.17604385829633692,0.0,0.0,0.0,0.0,0.0,0.0,0.0,0.0,0.0,0.1325350613828859,1.0507467169425613,-9.815772994789832,0.0,0.0,0.0,0.0,0.0,0.0,0.0,0.0,0.0
1710444782.2047136,2007,1710444782,204471111,map,0.0006380342047312954,0.0008881156821558511,0.037795957771646106,0.999284879170606,0.0,0.0,0.0,0.0,0.0,0.0,0.0,0.0,0.0,-0.007672090367384069,0.002315993735869724,0.1777948174388927,0.0,0.0,0.0,0.0,0.0,0.0,0.0,0.0,0.0,0.12326064239717763,1.0829053421242418,-9.821637532763635,0.0,0.0,0.0,0.0,0.0,0.0,0.0,0.0,0.0
1710444782.2218015,2008,1710444782,221677065,map,0.0006149188280472248,0.0009005667816731597,0.03869253399739835,0.9992505685098042,0.0,0.0,0.0,0.0,0.0,0.0,0.0,0.0,0.0,-0.0046830190810141226,0.0027794757799706584,0.1794407684921855,0.0,0.0,0.0,0.0,0.0,0.0,0.0,0.0,0.0,0.11752746455590177,1.096825761778174,-9.827621280021328,0.0,0.0,0.0,0.0,0.0,0.0,0.0,0.0,0.0
1710444782.2386937,2009,1710444782,238511324,map,0.0006133803168919409,0.0009158872065265339,0.03959760300140795,0.9992150993413554,0.0,0.0,0.0,0.0,0.0,0.0,0.0,0.0,0.0,-0.00035045776948277945,0.0031910755743286803,0.18115049087465618,0.0,0.0,0.0,0.0,0.0,0.0,0.0,0.0,0.0,0.11157966780307418,1.0990697834151248,-9.833144488287745,0.0,0.0,0.0,0.0,0.0,0.0,0.0,0.0,0.0
1710444782.2554111,2010,1710444782,255306244,map,0.0006545708140783842,0.0009368223470181278,0.040512565247674465,0.999178375445542,0.0,0.0,0.0,0.0,0.0,0.0,0.0,0.0,0.0,0.008230689502109409,0.003984042362239172,0.1831444927683435,0.0,0.0,0.0,0.0,0.0,0.0,0.0,0.0,0.0,0.11797746068509249,1.0749530118679593,-9.838855823705302,0.0,0.0,0.0,0.0,0.0,0.0,0.0,0.0,0.0
1710444782.271785,2011,1710444782,271559715,map,0.0007653087761566016,0.0009746936173317153,0.0414350277115142,0.9991404319480699,0.0,0.0,0.0,0.0,0.0,0.0,0.0,0.0,0.0,0.022262091783439894,0.006819205667005492,0.18466340580382357,0.0,0.0,0.0,0.0,0.0,0.0,0.0,0.0,0.0,0.1258659698821935,0.9772203456719987,-9.846847967999757,0.0,0.0,0.0,0.0,0.0,0.0,0.0,0.0,0.0
1710444782.2883515,2012,1710444782,288110971,map,0.0009579100300888788,0.0010172490187307372,0.04236219337511139,0.9991013422997979,0.0,0.0,0.0,0.0,0.0,0.0,0.0,0.0,0.0,0.038658473051265116,0.007093093994955979,0.18562736748800734,0.0,0.0,0.0,0.0,0.0,0.0,0.0,0.0,0.0,0.12114790813318145,0.8365498109124225,-9.85282100504835,0.0,0.0,0.0,0.0,0.0,0.0,0.0,0.0,0.0
1710444782.3049774,2013,1710444782,304787397,map,0.0012128018870018035,0.0010537707440896429,0.04329836362770728,0.9990608942331617,0.0,0.0,0.0,0.0,0.0,0.0,0.0,0.0,0.0,0.051054259302673426,0.005373661511038609,0.18745200763387465,0.0,0.0,0.0,0.0,0.0,0.0,0.0,0.0,0.0,0.27284375187355897,0.7415644588695957,-9.856661779163638,0.0,0.0,0.0,0.0,0.0,0.0,0.0,0.0,0.0
1710444782.3210711,2014,1710444782,320976019,map,0.0015214645744927122,0.001084810220704773,0.04423883211325717,0.9990192360838648,0.0,0.0,0.0,0.0,0.0,0.0,0.0,0.0,0.0,0.061751680041449,0.003824199244405774,0.18833418226087037,0.0,0.0,0.0,0.0,0.0,0.0,0.0,0.0,0.0,0.32336922878345414,0.6049483057787981,-9.851873384373688,0.0,0.0,0.0,0.0,0.0,0.0,0.0,0.0,0.0
1710444782.3383834,2015,1710444782,338199139,map,0.0018581412947339317,0.0011350270491878901,0.045189422146181435,0.998976063352181,0.0,0.0,0.0,0.0,0.0,0.0,0.0,0.0,0.0,0.06751347748517514,0.007417569283278971,0.19036882918925044,0.0,0.0,0.0,0.0,0.0,0.0,0.0,0.0,0.0,0.2640972799852385,0.4237959564012999,-9.849804917033714,0.0,0.0,0.0,0.0,0.0,0.0,0.0,0.0,0.0
1710444782.354718,2016,1710444782,354590893,map,0.0021910072329601993,0.0011783554733191524,0.04614680834430522,0.99893157075213,0.0,0.0,0.0,0.0,0.0,0.0,0.0,0.0,0.0,0.06669002575443457,0.0060782387668628386,0.1917407716726599,0.0,0.0,0.0,0.0,0.0,0.0,0.0,0.0,0.0,0.14526456690300915,0.275945190504934,-9.84504120229082,0.0,0.0,0.0,0.0,0.0,0.0,0.0,0.0,0.0
1710444782.3717515,2017,1710444782,371559620,map,0.0024944282933306197,0.0012226931219002017,0.04711336989558506,0.9988856857649433,0.0,0.0,0.0,0.0,0.0,0.0,0.0,0.0,0.0,0.060814588590915555,0.0065509007348370975,0.19357938495065957,0.0,0.0,0.0,0.0,0.0,0.0,0.0,0.0,0.0,0.27792797071514513,0.14108800008381903,-9.834505616165897,0.0,0.0,0.0,0.0,0.0,0.0,0.0,0.0,0.0
1710444782.3884842,2018,1710444782,388370037,map,0.002752047417410455,0.001266760463292962,0.04808930980887463,0.9988384453128779,0.0,0.0,0.0,0.0,0.0,0.0,0.0,0.0,0.0,0.05165981339899544,0.0069251101727543386,0.1954548755511339,0.0,0.0,0.0,0.0,0.0,0.0,0.0,0.0,0.0,0.22099472740480575,0.001694745070829989,-9.823555591514953,0.0,0.0,0.0,0.0,0.0,0.0,0.0,0.0,0.0
1710444782.4048471,2019,1710444782,404743195,map,0.002957705791606112,0.001307710010515968,0.04907507712793972,0.9987898571150318,0.0,0.0,0.0,0.0,0.0,0.0,0.0,0.0,0.0,0.04124805253421445,0.006798007563084079,0.19741997317362994,0.0,0.0,0.0,0.0,0.0,0.0,0.0,0.0,0.0,0.22710268980498688,-0.1215924218285703,-9.81279928195033,0.0,0.0,0.0,0.0,0.0,0.0,0.0,0.0,0.0
1710444782.4217634,2020,1710444782,421647549,map,0.003113620067432086,0.0013481427814459363,0.05007163570684406,0.9987398656200511,0.0,0.0,0.0,0.0,0.0,0.0,0.0,0.0,0.0,0.03130374846015558,0.00718028876333266,0.19957695975051826,0.0,0.0,0.0,0.0,0.0,0.0,0.0,0.0,0.0,0.2517780220397477,-0.22264161486670156,-9.801787324351116,0.0,0.0,0.0,0.0,0.0,0.0,0.0,0.0,0.0
1710444782.438447,2021,1710444782,438258886,map,0.0032309407771245803,0.0013854577944750264,0.051078192746086305,0.9986884698213894,0.0,0.0,0.0,0.0,0.0,0.0,0.0,0.0,0.0,0.02356188164993001,0.006943126863545246,0.20158003650743161,0.0,0.0,0.0,0.0,0.0,0.0,0.0,0.0,0.0,0.24894889338510712,-0.31237381307309076,-9.791807272115562,0.0,0.0,0.0,0.0,0.0,0.0,0.0,0.0,0.0
1710444782.4548924,2022,1710444782,454775810,map,0.0033323691085647296,0.00141313861682172,0.05209537719079107,0.9986355541591353,0.0,0.0,0.0,0.0,0.0,0.0,0.0,0.0,0.0,0.020288907288941498,0.00518537250558566,0.20372037083339792,0.0,0.0,0.0,0.0,0.0,0.0,0.0,0.0,0.0,0.27049417428653416,-0.38851586187788384,-9.783704300439991,0.0,0.0,0.0,0.0,0.0,0.0,0.0,0.0,0.0
1710444782.4712167,2023,1710444782,471080542,map,0.003440078912865837,0.001453000359436547,0.05313899495660911,0.9985801429339711,0.0,0.0,0.0,0.0,0.0,0.0,0.0,0.0,0.0,0.021661962634684246,0.007573081785070217,0.209019189070115,0.0,0.0,0.0,0.0,0.0,0.0,0.0,0.0,0.0,0.2987520459991839,-0.43952992659432233,-9.77826072024992,0.0,0.0,0.0,0.0,0.0,0.0,0.0,0.0,0.0
1710444782.4881632,2024,1710444782,488043785,map,0.003578167714208188,0.0014997277292319742,0.054199208476358854,0.99852260531902,0.0,0.0,0.0,0.0,0.0,0.0,0.0,0.0,0.0,0.027797486260927,0.008640309083167085,0.21235995253100076,0.0,0.0,0.0,0.0,0.0,0.0,0.0,0.0,0.0,0.2977578955777896,-0.43897902021377344,-9.77444928279434,0.0,0.0,0.0,0.0,0.0,0.0,0.0,0.0,0.0
1710444782.5047083,2025,1710444782,504616499,map,0.0037505367333979626,0.0015355647194032459,0.05526836426562289,0.9984633110067723,0.0,0.0,0.0,0.0,0.0,0.0,0.0,0.0,0.0,0.03452656278273993,0.0061082434941411405,0.21418303071148986,0.0,0.0,0.0,0.0,0.0,0.0,0.0,0.0,0.0,0.3404521578160952,-0.6448189072443505,-9.774698411571217,0.0,0.0,0.0,0.0,0.0,0.0,0.0,0.0,0.0
1710444782.521439,2026,1710444782,521327257,map,0.003933500573953851,0.0015622959771792325,0.056345203109109114,0.9984023762447221,0.0,0.0,0.0,0.0,0.0,0.0,0.0,0.0,0.0,0.036542522225924495,0.004181494145269285,0.21574578907295316,0.0,0.0,0.0,0.0,0.0,0.0,0.0,0.0,0.0,0.32743364035932754,-0.8438496915285156,-9.77560226008695,0.0,0.0,0.0,0.0,0.0,0.0,0.0,0.0,0.0
1710444782.538622,2027,1710444782,538454771,map,0.0041113274063917645,0.0015984918673060723,0.0574285375249053,0.9983398744357846,0.0,0.0,0.0,0.0,0.0,0.0,0.0,0.0,0.0,0.03562047584029861,0.006134124339965762,0.21705110839111605,0.0,0.0,0.0,0.0,0.0,0.0,0.0,0.0,0.0,0.21474423991566874,-0.7710512652307614,-9.770845530263035,0.0,0.0,0.0,0.0,0.0,0.0,0.0,0.0,0.0
1710444782.5553434,2028,1710444782,555151224,map,0.004265904913225982,0.0016292861658837546,0.058519675553005704,0.9982758111138584,0.0,0.0,0.0,0.0,0.0,0.0,0.0,0.0,0.0,0.030915912136331648,0.0053246873909406885,0.21862445320117055,0.0,0.0,0.0,0.0,0.0,0.0,0.0,0.0,0.0,0.07964487653282591,-0.8234531169327823,-9.771513288517317,0.0,0.0,0.0,0.0,0.0,0.0,0.0,0.0,0.0
1710444782.5718606,2029,1710444782,571708918,map,0.00436597334469906,0.0016771106237269905,0.05965421953791308,0.9982081444608794,0.0,0.0,0.0,0.0,0.0,0.0,0.0,0.0,0.0,0.0202162869308349,0.009390208445466973,0.2273004357436746,0.0,0.0,0.0,0.0,0.0,0.0,0.0,0.0,0.0,0.2024524559848241,-0.8357861846451691,-9.772442282741371,0.0,0.0,0.0,0.0,0.0,0.0,0.0,0.0,0.0
1710444782.588155,2030,1710444782,587985039,map,0.004388984675840373,0.0017113086398574085,0.06086225966377074,0.9981350577877095,0.0,0.0,0.0,0.0,0.0,0.0,0.0,0.0,0.0,0.004651407050020401,0.007637806504957046,0.24202482284639415,0.0,0.0,0.0,0.0,0.0,0.0,0.0,0.0,0.0,0.3608615162687494,-0.7274473264349497,-9.77301458043629,0.0,0.0,0.0,0.0,0.0,0.0,0.0,0.0,0.0
1710444782.60492,2031,1710444782,604817629,map,0.004324134779978689,0.0017129448428160204,0.06208821875363901,0.9980598282519794,0.0,0.0,0.0,0.0,0.0,0.0,0.0,0.0,0.0,-0.013282150808297402,0.0022015932745482187,0.2456268539313996,0.0,0.0,0.0,0.0,0.0,0.0,0.0,0.0,0.0,0.8585918141406192,-0.656573187107935,-9.773471859798706,0.0,0.0,0.0,0.0,0.0,0.0,0.0,0.0,0.0
1710444782.6214828,2032,1710444782,621373177,map,0.0041234643982038,0.0017172779903581186,0.06334192569221132,0.9979818878352767,0.0,0.0,0.0,0.0,0.0,0.0,0.0,0.0,0.0,-0.040370081916372105,0.00441705110487459,0.25115121057265233,0.0,0.0,0.0,0.0,0.0,0.0,0.0,0.0,0.0,0.3751371481565344,-0.6882666166856909,-9.779792280151131,0.0,0.0,0.0,0.0,0.0,0.0,0.0,0.0,0.0
1710444782.6381307,2033,1710444782,637976170,map,0.003792796456767154,0.0016719520388121453,0.06463241126567545,0.9979005314586229,0.0,0.0,0.0,0.0,0.0,0.0,0.0,0.0,0.0,-0.06694553801356407,-0.0038522107299918972,0.25852950700120864,0.0,0.0,0.0,0.0,0.0,0.0,0.0,0.0,0.0,0.254140696349856,-0.41751506268673744,-9.777124041101592,0.0,0.0,0.0,0.0,0.0,0.0,0.0,0.0,0.0
1710444782.65482,2034,1710444782,654642344,map,0.0033341051474678877,0.0016202782925465568,0.06596588605865683,0.9978149930310812,0.0,0.0,0.0,0.0,0.0,0.0,0.0,0.0,0.0,-0.09259009009083094,-0.003467332874067689,0.2671250703968901,0.0,0.0,0.0,0.0,0.0,0.0,0.0,0.0,0.0,0.30144421203420046,-0.201067877696397,-9.779518005665933,0.0,0.0,0.0,0.0,0.0,0.0,0.0,0.0,0.0
1710444782.671433,2035,1710444782,671283007,map,0.0027948654368287374,0.0015733172888383244,0.06735604058821222,0.9977238481644998,0.0,0.0,0.0,0.0,0.0,0.0,0.0,0.0,0.0,-0.10861965729176373,-0.00145211793063801,0.2784818101483114,0.0,0.0,0.0,0.0,0.0,0.0,0.0,0.0,0.0,-0.13572542312601898,0.12621271290178562,-9.783262853560592,0.0,0.0,0.0,0.0,0.0,0.0,0.0,0.0,0.0
1710444782.6882894,2036,1710444782,688105583,map,0.002233803381544024,0.0015508562386750474,0.0687722746404461,0.9976286780201132,0.0,0.0,0.0,0.0,0.0,0.0,0.0,0.0,0.0,-0.11265743766923965,0.0037379691385740314,0.28372240968936285,0.0,0.0,0.0,0.0,0.0,0.0,0.0,0.0,0.0,-0.18572544495389082,0.28847529114015413,-9.797242004741596,0.0,0.0,0.0,0.0,0.0,0.0,0.0,0.0,0.0
1710444782.7052476,2037,1710444782,705048323,map,0.0016970821354108747,0.0015372830081665332,0.07020070664063299,0.9975302589196652,0.0,0.0,0.0,0.0,0.0,0.0,0.0,0.0,0.0,-0.10768302324919528,0.005188702345502835,0.28620516810252705,0.0,0.0,0.0,0.0,0.0,0.0,0.0,0.0,0.0,0.0306764326505381,0.5165762095405844,-9.811603929482587,0.0,0.0,0.0,0.0,0.0,0.0,0.0,0.0,0.0
1710444782.7212918,2038,1710444782,721089363,map,0.0012208186553096818,0.0014972095945693451,0.07165147635941616,0.9974278589957055,0.0,0.0,0.0,0.0,0.0,0.0,0.0,0.0,0.0,-0.09599013770939083,-0.0009237261598338143,0.29074191182019793,0.0,0.0,0.0,0.0,0.0,0.0,0.0,0.0,0.0,0.2817721772632738,0.8095557475114771,-9.823600294996412,0.0,0.0,0.0,0.0,0.0,0.0,0.0,0.0,0.0
1710444782.7377393,2039,1710444782,737603426,map,0.0008467846674434058,0.0014354373022510275,0.07312444019028608,0.9973214319978969,0.0,0.0,0.0,0.0,0.0,0.0,0.0,0.0,0.0,-0.0759048987576189,-0.006683216958759474,0.29526083568219497,0.0,0.0,0.0,0.0,0.0,0.0,0.0,0.0,0.0,0.5221304843255508,1.082265610857358,-9.834906550515225,0.0,0.0,0.0,0.0,0.0,0.0,0.0,0.0,0.0
1710444782.755149,2040,1710444782,755010128,map,0.0006141774821602484,0.0013941194521184033,0.07461046247601864,0.9972115914419007,0.0,0.0,0.0,0.0,0.0,0.0,0.0,0.0,0.0,-0.04740227115142037,-0.00462700315175026,0.29795402150057576,0.0,0.0,0.0,0.0,0.0,0.0,0.0,0.0,0.0,0.49533837421354177,1.2181721980434077,-9.844847021543236,0.0,0.0,0.0,0.0,0.0,0.0,0.0,0.0,0.0
1710444782.7713275,2041,1710444782,771216154,map,0.0004907921406048972,0.0013933106204491326,0.07612762552255499,0.9970969874795969,0.0,0.0,0.0,0.0,0.0,0.0,0.0,0.0,0.0,-0.025032130702128425,0.0018600884787281261,0.3042626952906969,0.0,0.0,0.0,0.0,0.0,0.0,0.0,0.0,0.0,0.32105914509248323,1.106508227361441,-9.853891094635756,0.0,0.0,0.0,0.0,0.0,0.0,0.0,0.0,0.0
1710444782.787754,2042,1710444782,787634611,map,0.00047113003702841825,0.0014163216818661184,0.07765891046295768,0.9969788692319853,0.0,0.0,0.0,0.0,0.0,0.0,0.0,0.0,0.0,-0.00399355015573506,0.005065314166602716,0.30715881679074786,0.0,0.0,0.0,0.0,0.0,0.0,0.0,0.0,0.0,0.10923477593253034,1.2221295038903088,-9.850365107535739,0.0,0.0,0.0,0.0,0.0,0.0,0.0,0.0,0.0
1710444782.804316,2043,1710444782,804221392,map,0.0005141273200387213,0.0014534252863887573,0.07920623662315111,0.9968570586137379,0.0,0.0,0.0,0.0,0.0,0.0,0.0,0.0,0.0,0.008712199940954735,0.006924311493008427,0.31043074005435933,0.0,0.0,0.0,0.0,0.0,0.0,0.0,0.0,0.0,0.23592187397227105,1.2848630402907588,-9.848192332072362,0.0,0.0,0.0,0.0,0.0,0.0,0.0,0.0,0.0
1710444782.821106,2044,1710444782,821017981,map,0.0005602017282096361,0.001489732710359608,0.08076476647516674,0.9967319195082934,0.0,0.0,0.0,0.0,0.0,0.0,0.0,0.0,0.0,0.009310404920058453,0.006719984780450796,0.31271813125186176,0.0,0.0,0.0,0.0,0.0,0.0,0.0,0.0,0.0,0.2251957887341406,1.343486359326351,-9.840698910992923,0.0,0.0,0.0,0.0,0.0,0.0,0.0,0.0,0.0
1710444782.8390577,2045,1710444782,838866472,map,0.000565208512828194,0.0015102022347177819,0.08233143653825889,0.9966036997654053,0.0,0.0,0.0,0.0,0.0,0.0,0.0,0.0,0.0,0.0008696854282943547,0.00421475645461754,0.3143804489154686,0.0,0.0,0.0,0.0,0.0,0.0,0.0,0.0,0.0,0.2900230254943722,1.3670465492462982,-9.828262495583495,0.0,0.0,0.0,0.0,0.0,0.0,0.0,0.0,0.0
1710444782.8550131,2046,1710444782,854867220,map,0.0005122721322942214,0.0015276838474882913,0.08390514761788105,0.9964724431526173,0.0,0.0,0.0,0.0,0.0,0.0,0.0,0.0,0.0,-0.010731157028663717,0.004556713716907945,0.31581697715960116,0.0,0.0,0.0,0.0,0.0,0.0,0.0,0.0,0.0,0.31589245873222555,1.3195745951511857,-9.818133897404346,0.0,0.0,0.0,0.0,0.0,0.0,0.0,0.0,0.0
1710444782.871819,2047,1710444782,871710777,map,0.00040936101099535454,0.001533465594679894,0.08548403537355427,0.9963382761909158,0.0,0.0,0.0,0.0,0.0,0.0,0.0,0.0,0.0,-0.02088611486302906,0.003048893425451045,0.3168835048651163,0.0,0.0,0.0,0.0,0.0,0.0,0.0,0.0,0.0,0.22242231751462613,1.349233841699617,-9.812606032525276,0.0,0.0,0.0,0.0,0.0,0.0,0.0,0.0,0.0
1710444782.888587,2048,1710444782,888465643,map,0.00027067587926084453,0.0015312957760350385,0.08706751089527409,0.9962011997655474,0.0,0.0,0.0,0.0,0.0,0.0,0.0,0.0,0.0,-0.02815029462319354,0.0020656479008024755,0.3178370951027777,0.0,0.0,0.0,0.0,0.0,0.0,0.0,0.0,0.0,0.25070677921311396,1.4431543428442706,-9.808865375582004,0.0,0.0,0.0,0.0,0.0,0.0,0.0,0.0,0.0
1710444782.9049833,2049,1710444782,904850721,map,0.00012291968342102345,0.0015268466091956613,0.08865802331406436,0.9960609461936686,0.0,0.0,0.0,0.0,0.0,0.0,0.0,0.0,0.0,-0.029998832176537628,0.0017676667705965904,0.31929177538879233,0.0,0.0,0.0,0.0,0.0,0.0,0.0,0.0,0.0,0.253712528092471,1.5015319091471588,-9.80570772654275,0.0,0.0,0.0,0.0,0.0,0.0,0.0,0.0,0.0
1710444782.921673,2050,1710444782,921572685,map,-6.742775696199038e-06,0.001520271005082451,0.09025425061497595,0.9959175964790136,0.0,0.0,0.0,0.0,0.0,0.0,0.0,0.0,0.0,-0.026432537393414307,0.0010298435806273534,0.3204905983952644,0.0,0.0,0.0,0.0,0.0,0.0,0.0,0.0,0.0,0.239425327432629,1.4716153265420517,-9.803770110018295,0.0,0.0,0.0,0.0,0.0,0.0,0.0,0.0,0.0
1710444782.938461,2051,1710444782,938274145,map,-8.585304970971716e-05,0.0015275540587770394,0.09186337413707289,0.9957704452834517,0.0,0.0,0.0,0.0,0.0,0.0,0.0,0.0,0.0,-0.016120155573958683,0.002895202101682918,0.32314342133516344,0.0,0.0,0.0,0.0,0.0,0.0,0.0,0.0,0.0,0.2209551352833287,1.5255004257890195,-9.805041365272263,0.0,0.0,0.0,0.0,0.0,0.0,0.0,0.0,0.0
1710444782.9553664,2052,1710444782,955237389,map,-0.00010389835800261539,0.0015575680289197885,0.09348687081272548,0.9956192887708691,0.0,0.0,0.0,0.0,0.0,0.0,0.0,0.0,0.0,-0.0035512630776348792,0.006321467086101115,0.3260984102503683,0.0,0.0,0.0,0.0,0.0,0.0,0.0,0.0,0.0,0.21272160383052957,1.5207346737780902,-9.809138253083406,0.0,0.0,0.0,0.0,0.0,0.0,0.0,0.0,0.0
1710444782.971699,2053,1710444782,971576929,map,-7.448346023228891e-05,0.0015943859592245555,0.09512321672805171,0.9954642263913531,0.0,0.0,0.0,0.0,0.0,0.0,0.0,0.0,0.0,0.006021462071598451,0.006805555088082213,0.3287446422915118,0.0,0.0,0.0,0.0,0.0,0.0,0.0,0.0,0.0,0.21250362342671977,1.4623541970922946,-9.808893315257915,0.0,0.0,0.0,0.0,0.0,0.0,0.0,0.0,0.0
1710444782.9884853,2054,1710444782,988289595,map,-9.495765643807104e-06,0.001634992076482614,0.09677181333735214,0.9953052510934226,0.0,0.0,0.0,0.0,0.0,0.0,0.0,0.0,0.0,0.013171629816913435,0.006895980916198911,0.33126926422732944,0.0,0.0,0.0,0.0,0.0,0.0,0.0,0.0,0.0,0.26848040759330544,1.4328010631046684,-9.808564558404692,0.0,0.0,0.0,0.0,0.0,0.0,0.0,0.0,0.0
