Time,header.seq,header.stamp.secs,header.stamp.nsecs,header.frame_id,orientation.x,orientation.y,orientation.z,orientation.w,orientation_covariance_0,orientation_covariance_1,orientation_covariance_2,orientation_covariance_3,orientation_covariance_4,orientation_covariance_5,orientation_covariance_6,orientation_covariance_7,orientation_covariance_8,angular_velocity.x,angular_velocity.y,angular_velocity.z,angular_velocity_covariance_0,angular_velocity_covariance_1,angular_velocity_covariance_2,angular_velocity_covariance_3,angular_velocity_covariance_4,angular_velocity_covariance_5,angular_velocity_covariance_6,angular_velocity_covariance_7,angular_velocity_covariance_8,linear_acceleration.x,linear_acceleration.y,linear_acceleration.z,linear_acceleration_covariance_0,linear_acceleration_covariance_1,linear_acceleration_covariance_2,linear_acceleration_covariance_3,linear_acceleration_covariance_4,linear_acceleration_covariance_5,linear_acceleration_covariance_6,linear_acceleration_covariance_7,linear_acceleration_covariance_8
1710444585.0902135,322,1710444585,90006828,map,0.0004075169710634179,6.0863110247311765e-06,1.623612911200034e-08,0.9999999169464341,0.0,0.0,0.0,0.0,0.0,0.0,0.0,0.0,0.0,-0.0,0.0,-0.0,0.0,0.0,0.0,0.0,0.0,0.0,0.0,0.0,0.0,1.885639377229035e-05,-0.006789278263965327,-9.810475632237031,0.0,0.0,0.0,0.0,0.0,0.0,0.0,0.0,0.0
1710444585.10747,323,1710444585,107351780,map,0.0004075169710634179,6.0863110247311765e-06,1.623612911200034e-08,0.9999999169464341,0.0,0.0,0.0,0.0,0.0,0.0,0.0,0.0,0.0,-0.0,0.0,-0.0,0.0,0.0,0.0,0.0,0.0,0.0,0.0,0.0,0.0,2.003822079679954e-05,-0.006788894229845744,-9.810476097898295,0.0,0.0,0.0,0.0,0.0,0.0,0.0,0.0,0.0
1710444585.1231992,324,1710444585,123087645,map,0.0004075169710634179,6.0863110247311765e-06,1.623612911200034e-08,0.9999999169464341,0.0,0.0,0.0,0.0,0.0,0.0,0.0,0.0,0.0,-0.0,0.0,-0.0,0.0,0.0,0.0,0.0,0.0,0.0,0.0,0.0,0.0,1.8024265667646206e-05,-0.006780914096337748,-9.810476097898295,0.0,0.0,0.0,0.0,0.0,0.0,0.0,0.0,0.0
1710444585.1406898,325,1710444585,140563250,map,0.0004075169710634179,6.0863110247311765e-06,1.623612911200034e-08,0.9999999169464341,0.0,0.0,0.0,0.0,0.0,0.0,0.0,0.0,0.0,-0.0,0.0,-0.0,0.0,0.0,0.0,0.0,0.0,0.0,0.0,0.0,0.0,1.8986044722769566e-05,-0.0067947629715038585,-9.810002054730333,0.0,0.0,0.0,0.0,0.0,0.0,0.0,0.0,0.0
1710444585.156586,326,1710444585,156462431,map,0.0004075169710634179,6.0863110247311765e-06,1.623612911200034e-08,0.9999999169464341,0.0,0.0,0.0,0.0,0.0,0.0,0.0,0.0,0.0,-0.0,0.0,-0.0,0.0,0.0,0.0,0.0,0.0,0.0,0.0,0.0,0.0,1.804124763822427e-05,-0.006780297913706565,-9.810945484453608,0.0,0.0,0.0,0.0,0.0,0.0,0.0,0.0,0.0
1710444585.1734822,327,1710444585,173340321,map,0.0004075169710634179,6.0863110247311765e-06,1.623612911200034e-08,0.9999999169464341,0.0,0.0,0.0,0.0,0.0,0.0,0.0,0.0,0.0,-0.0,0.0,-0.0,0.0,0.0,0.0,0.0,0.0,0.0,0.0,0.0,0.0,2.0202015988645525e-05,-0.006779165138109311,-9.810489602074986,0.0,0.0,0.0,0.0,0.0,0.0,0.0,0.0,0.0
1710444585.1897662,328,1710444585,189668894,map,0.0004075169710634179,6.0863110247311765e-06,1.623612911200034e-08,0.9999999169464341,0.0,0.0,0.0,0.0,0.0,0.0,0.0,0.0,0.0,-0.0,0.0,-0.0,0.0,0.0,0.0,0.0,0.0,0.0,0.0,0.0,0.0,1.8568186106035726e-05,-0.006793560164817894,-9.810475632237031,0.0,0.0,0.0,0.0,0.0,0.0,0.0,0.0,0.0
1710444585.206588,329,1710444585,206471920,map,0.0004075169710634179,6.0863110247311765e-06,1.623612911200034e-08,0.9999999169464341,0.0,0.0,0.0,0.0,0.0,0.0,0.0,0.0,0.0,-0.0,0.0,-0.0,0.0,0.0,0.0,0.0,0.0,0.0,0.0,0.0,0.0,1.842834330867454e-05,-0.006785867658995673,-9.810476097898295,0.0,0.0,0.0,0.0,0.0,0.0,0.0,0.0,0.0
1710444585.2236311,330,1710444585,223365784,map,0.0004075169710634179,6.0863110247311765e-06,1.623612911200034e-08,0.9999999169464341,0.0,0.0,0.0,0.0,0.0,0.0,0.0,0.0,0.0,-0.0,0.0,-0.0,0.0,0.0,0.0,0.0,0.0,0.0,0.0,0.0,0.0,1.856600918083244e-05,-0.006785113233176386,-9.810476097898295,0.0,0.0,0.0,0.0,0.0,0.0,0.0,0.0,0.0
1710444585.240155,331,1710444585,240050554,map,0.0004075169710634179,6.0863110247311765e-06,1.623612911200034e-08,0.9999999169464341,0.0,0.0,0.0,0.0,0.0,0.0,0.0,0.0,0.0,-0.0,0.0,-0.0,0.0,0.0,0.0,0.0,0.0,0.0,0.0,0.0,0.0,1.799410312994583e-05,-0.006791970368154707,-9.810476097898295,0.0,0.0,0.0,0.0,0.0,0.0,0.0,0.0,0.0
1710444585.2565532,332,1710444585,256412983,map,0.0004075169710634179,6.0863110247311765e-06,1.623612911200034e-08,0.9999999169464341,0.0,0.0,0.0,0.0,0.0,0.0,0.0,0.0,0.0,-0.0,0.0,-0.0,0.0,0.0,0.0,0.0,0.0,0.0,0.0,0.0,0.0,2.0119609910601405e-05,-0.006791478786291747,-9.810476097898295,0.0,0.0,0.0,0.0,0.0,0.0,0.0,0.0,0.0
1710444585.2737963,333,1710444585,273660421,map,0.0004075169710634179,6.0863110247311765e-06,1.623612911200034e-08,0.9999999169464341,0.0,0.0,0.0,0.0,0.0,0.0,0.0,0.0,0.0,-0.0,0.0,-0.0,0.0,0.0,0.0,0.0,0.0,0.0,0.0,0.0,0.0,1.851311727027311e-05,-0.006790457878537498,-9.810002054730333,0.0,0.0,0.0,0.0,0.0,0.0,0.0,0.0,0.0
1710444585.2905166,334,1710444585,290369272,map,0.0004075169710634179,6.0863110247311765e-06,1.623612911200034e-08,0.9999999169464341,0.0,0.0,0.0,0.0,0.0,0.0,0.0,0.0,0.0,-0.0,0.0,-0.0,0.0,0.0,0.0,0.0,0.0,0.0,0.0,0.0,0.0,1.799998731169686e-05,-0.006790415587035874,-9.810945484453608,0.0,0.0,0.0,0.0,0.0,0.0,0.0,0.0,0.0
1710444585.3062196,335,1710444585,306109667,map,0.0004075169710634179,6.0863110247311765e-06,1.623612911200034e-08,0.9999999169464341,0.0,0.0,0.0,0.0,0.0,0.0,0.0,0.0,0.0,-0.0,0.0,-0.0,0.0,0.0,0.0,0.0,0.0,0.0,0.0,0.0,0.0,1.8853881115660364e-05,-0.0067894205998793936,-9.810489602074986,0.0,0.0,0.0,0.0,0.0,0.0,0.0,0.0,0.0
1710444585.3227868,336,1710444585,322697163,map,0.0004075169710634179,6.0863110247311765e-06,1.623612911200034e-08,0.9999999169464341,0.0,0.0,0.0,0.0,0.0,0.0,0.0,0.0,0.0,-0.0,0.0,-0.0,0.0,0.0,0.0,0.0,0.0,0.0,0.0,0.0,0.0,1.7932195320676357e-05,-0.0067887364325224814,-9.810476097898295,0.0,0.0,0.0,0.0,0.0,0.0,0.0,0.0,0.0
1710444585.339513,337,1710444585,339295864,map,0.0004075169710634179,6.0863110247311765e-06,1.623612911200034e-08,0.9999999169464341,0.0,0.0,0.0,0.0,0.0,0.0,0.0,0.0,0.0,-0.0,0.0,-0.0,0.0,0.0,0.0,0.0,0.0,0.0,0.0,0.0,0.0,1.8820097474714867e-05,-0.006788074775158369,-9.810476097898295,0.0,0.0,0.0,0.0,0.0,0.0,0.0,0.0,0.0
1710444585.3561542,338,1710444585,356058359,map,0.0004075169710634179,6.0863110247311765e-06,1.623612911200034e-08,0.9999999169464341,0.0,0.0,0.0,0.0,0.0,0.0,0.0,0.0,0.0,-0.0,0.0,-0.0,0.0,0.0,0.0,0.0,0.0,0.0,0.0,0.0,0.0,1.9851348954348988e-05,-0.0067874188021358715,-9.810476097898295,0.0,0.0,0.0,0.0,0.0,0.0,0.0,0.0,0.0
1710444585.3732448,339,1710444585,373044491,map,0.0004075169710634179,6.0863110247311765e-06,1.623612911200034e-08,0.9999999169464341,0.0,0.0,0.0,0.0,0.0,0.0,0.0,0.0,0.0,-0.0,0.0,-0.0,0.0,0.0,0.0,0.0,0.0,0.0,0.0,0.0,0.0,1.790412444305503e-05,-0.006786776471533254,-9.810476097898295,0.0,0.0,0.0,0.0,0.0,0.0,0.0,0.0,0.0
1710444585.3899534,340,1710444585,389830828,map,0.0004075169710634179,6.0863110247311765e-06,1.623612911200034e-08,0.9999999169464341,0.0,0.0,0.0,0.0,0.0,0.0,0.0,0.0,0.0,-0.0,0.0,-0.0,0.0,0.0,0.0,0.0,0.0,0.0,0.0,0.0,0.0,1.8360286640497535e-05,-0.0067861395978985875,-9.810476097898295,0.0,0.0,0.0,0.0,0.0,0.0,0.0,0.0,0.0
1710444585.405718,341,1710444585,405603647,map,0.0004075169710634179,6.0863110247311765e-06,1.623612911200034e-08,0.9999999169464341,0.0,0.0,0.0,0.0,0.0,0.0,0.0,0.0,0.0,-0.0,0.0,-0.0,0.0,0.0,0.0,0.0,0.0,0.0,0.0,0.0,0.0,1.8445825323679144e-05,-0.0067851889486067124,-9.810002054730333,0.0,0.0,0.0,0.0,0.0,0.0,0.0,0.0,0.0
1710444585.4223216,342,1710444585,422196627,map,0.0004075169710634179,6.0863110247311765e-06,1.623612911200034e-08,0.9999999169464341,0.0,0.0,0.0,0.0,0.0,0.0,0.0,0.0,0.0,-0.0,0.0,-0.0,0.0,0.0,0.0,0.0,0.0,0.0,0.0,0.0,0.0,1.7934897159300753e-05,-0.0067852203261724335,-9.810945484453608,0.0,0.0,0.0,0.0,0.0,0.0,0.0,0.0,0.0
1710444585.4405074,343,1710444585,440394640,map,0.0004075169710634179,6.0863110247311765e-06,1.623612911200034e-08,0.9999999169464341,0.0,0.0,0.0,0.0,0.0,0.0,0.0,0.0,0.0,-0.0,0.0,-0.0,0.0,0.0,0.0,0.0,0.0,0.0,0.0,0.0,0.0,1.8678434799858152e-05,-0.006776888445605234,-9.810489602074986,0.0,0.0,0.0,0.0,0.0,0.0,0.0,0.0,0.0
1710444585.4554625,344,1710444585,455366850,map,0.0004075169710634179,6.0863110247311765e-06,1.623612911200034e-08,0.9999999169464341,0.0,0.0,0.0,0.0,0.0,0.0,0.0,0.0,0.0,-0.0,0.0,-0.0,0.0,0.0,0.0,0.0,0.0,0.0,0.0,0.0,0.0,1.9869478451390803e-05,-0.00679103381603004,-9.810476097898295,0.0,0.0,0.0,0.0,0.0,0.0,0.0,0.0,0.0
1710444585.473659,345,1710444585,473532200,map,0.0004075169710634179,6.0863110247311765e-06,1.623612911200034e-08,0.9999999169464341,0.0,0.0,0.0,0.0,0.0,0.0,0.0,0.0,0.0,-0.0,0.0,-0.0,0.0,0.0,0.0,0.0,0.0,0.0,0.0,0.0,0.0,1.78662143253676e-05,-0.006775897778548382,-9.810476097898295,0.0,0.0,0.0,0.0,0.0,0.0,0.0,0.0,0.0
1710444585.4895575,346,1710444585,489419937,map,0.0004075169710634179,6.0863110247311765e-06,1.623612911200034e-08,0.9999999169464341,0.0,0.0,0.0,0.0,0.0,0.0,0.0,0.0,0.0,-0.0,0.0,-0.0,0.0,0.0,0.0,0.0,0.0,0.0,0.0,0.0,0.0,1.828090125711534e-05,-0.006782454325542044,-9.810476097898295,0.0,0.0,0.0,0.0,0.0,0.0,0.0,0.0,0.0
1710444585.5065882,347,1710444585,506455898,map,0.0004075169710634179,6.0863110247311765e-06,1.623612911200034e-08,0.9999999169464341,0.0,0.0,0.0,0.0,0.0,0.0,0.0,0.0,0.0,-0.0,0.0,-0.0,0.0,0.0,0.0,0.0,0.0,0.0,0.0,0.0,0.0,1.8465749829221914e-05,-0.006774682011563534,-9.810476097898295,0.0,0.0,0.0,0.0,0.0,0.0,0.0,0.0,0.0
1710444585.523302,348,1710444585,523053646,map,0.0004075169710634179,6.0863110247311765e-06,1.623612911200034e-08,0.9999999169464341,0.0,0.0,0.0,0.0,0.0,0.0,0.0,0.0,0.0,-0.0,0.0,-0.0,0.0,0.0,0.0,0.0,0.0,0.0,0.0,0.0,0.0,1.7876832497870783e-05,-0.00678147184393712,-9.810476097898295,0.0,0.0,0.0,0.0,0.0,0.0,0.0,0.0,0.0
1710444585.5401154,349,1710444585,539965153,map,0.0004075169710634179,6.0863110247311765e-06,1.623612911200034e-08,0.9999999169464341,0.0,0.0,0.0,0.0,0.0,0.0,0.0,0.0,0.0,-0.0,0.0,-0.0,0.0,0.0,0.0,0.0,0.0,0.0,0.0,0.0,0.0,1.793173702063356e-05,-0.0067807967715267925,-9.810002054730333,0.0,0.0,0.0,0.0,0.0,0.0,0.0,0.0,0.0
1710444585.5569751,350,1710444585,556768894,map,0.0004075169710634179,6.0863110247311765e-06,1.623612911200034e-08,0.9999999169464341,0.0,0.0,0.0,0.0,0.0,0.0,0.0,0.0,0.0,-0.0,0.0,-0.0,0.0,0.0,0.0,0.0,0.0,0.0,0.0,0.0,0.0,2.0005351091404504e-05,-0.006780893860081596,-9.810945950114872,0.0,0.0,0.0,0.0,0.0,0.0,0.0,0.0,0.0
1710444585.5731435,351,1710444585,573044538,map,0.0004075169710634179,6.0863110247311765e-06,1.623612911200034e-08,0.9999999169464341,0.0,0.0,0.0,0.0,0.0,0.0,0.0,0.0,0.0,-0.0,0.0,-0.0,0.0,0.0,0.0,0.0,0.0,0.0,0.0,0.0,0.0,1.844144305156449e-05,-0.006772626553635155,-9.810489602074986,0.0,0.0,0.0,0.0,0.0,0.0,0.0,0.0,0.0
1710444585.5895312,352,1710444585,589447975,map,0.0004075169710634179,6.0863110247311765e-06,1.623612911200034e-08,0.9999999169464341,0.0,0.0,0.0,0.0,0.0,0.0,0.0,0.0,0.0,-0.0,0.0,-0.0,0.0,0.0,0.0,0.0,0.0,0.0,0.0,0.0,0.0,1.7916053566843418e-05,-0.006779427982065638,-9.810476097898295,0.0,0.0,0.0,0.0,0.0,0.0,0.0,0.0,0.0
1710444585.606522,353,1710444585,606393814,map,0.0004075169710634179,6.0863110247311765e-06,1.623612911200034e-08,0.9999999169464341,0.0,0.0,0.0,0.0,0.0,0.0,0.0,0.0,0.0,-0.0,0.0,-0.0,0.0,0.0,0.0,0.0,0.0,0.0,0.0,0.0,0.0,1.821410491405603e-05,-0.006771699778578068,-9.810476097898295,0.0,0.0,0.0,0.0,0.0,0.0,0.0,0.0,0.0
1710444585.6228952,354,1710444585,622761965,map,0.0004075169710634179,6.0863110247311765e-06,1.623612911200034e-08,0.9999999169464341,0.0,0.0,0.0,0.0,0.0,0.0,0.0,0.0,0.0,-0.0,0.0,-0.0,0.0,0.0,0.0,0.0,0.0,0.0,0.0,0.0,0.0,1.8454701778384018e-05,-0.006778528037100979,-9.810476097898295,0.0,0.0,0.0,0.0,0.0,0.0,0.0,0.0,0.0
1710444585.6394699,355,1710444585,639366388,map,0.0004075169710634179,6.0863110247311765e-06,1.623612911200034e-08,0.9999999169464341,0.0,0.0,0.0,0.0,0.0,0.0,0.0,0.0,0.0,-0.0,0.0,-0.0,0.0,0.0,0.0,0.0,0.0,0.0,0.0,0.0,0.0,1.7879808783613832e-05,-0.006778217899422405,-9.810476097898295,0.0,0.0,0.0,0.0,0.0,0.0,0.0,0.0,0.0
1710444585.6560414,356,1710444585,655924559,map,0.0004075169710634179,6.0863110247311765e-06,1.623612911200034e-08,0.9999999169464341,0.0,0.0,0.0,0.0,0.0,0.0,0.0,0.0,0.0,-0.0,0.0,-0.0,0.0,0.0,0.0,0.0,0.0,0.0,0.0,0.0,0.0,1.7885227559895043e-05,-0.006762901781998351,-9.810476097898295,0.0,0.0,0.0,0.0,0.0,0.0,0.0,0.0,0.0
1710444585.6724937,357,1710444585,672395945,map,0.0004075169710634179,6.0863110247311765e-06,1.623612911200034e-08,0.9999999169464341,0.0,0.0,0.0,0.0,0.0,0.0,0.0,0.0,0.0,-0.0,0.0,-0.0,0.0,0.0,0.0,0.0,0.0,0.0,0.0,0.0,0.0,1.9993775462610364e-05,-0.006776772712409931,-9.810002054730333,0.0,0.0,0.0,0.0,0.0,0.0,0.0,0.0,0.0
1710444585.6893435,358,1710444585,689238071,map,0.0004075169710634179,6.0863110247311765e-06,1.623612911200034e-08,0.9999999169464341,0.0,0.0,0.0,0.0,0.0,0.0,0.0,0.0,0.0,-0.0,0.0,-0.0,0.0,0.0,0.0,0.0,0.0,0.0,0.0,0.0,0.0,1.8410988303177918e-05,-0.0067773479677814795,-9.810945484453608,0.0,0.0,0.0,0.0,0.0,0.0,0.0,0.0,0.0
1710444585.7056806,359,1710444585,705573320,map,0.0004075169710634179,6.0863110247311765e-06,1.623612911200034e-08,0.9999999169464341,0.0,0.0,0.0,0.0,0.0,0.0,0.0,0.0,0.0,-0.0,0.0,-0.0,0.0,0.0,0.0,0.0,0.0,0.0,0.0,0.0,0.0,1.7919834542196496e-05,-0.006769141142729834,-9.810489602074986,0.0,0.0,0.0,0.0,0.0,0.0,0.0,0.0,0.0
1710444585.722648,360,1710444585,722487450,map,0.0004075169710634179,6.0863110247311765e-06,1.623612911200034e-08,0.9999999169464341,0.0,0.0,0.0,0.0,0.0,0.0,0.0,0.0,0.0,-0.0,0.0,-0.0,0.0,0.0,0.0,0.0,0.0,0.0,0.0,0.0,0.0,1.7842807272406603e-05,-0.006768591353208726,-9.810476097898295,0.0,0.0,0.0,0.0,0.0,0.0,0.0,0.0,0.0
1710444585.7396176,361,1710444585,739470959,map,0.0004075169710634179,6.0863110247311765e-06,1.623612911200034e-08,0.9999999169464341,0.0,0.0,0.0,0.0,0.0,0.0,0.0,0.0,0.0,-0.0,0.0,-0.0,0.0,0.0,0.0,0.0,0.0,0.0,0.0,0.0,0.0,1.8761322270582882e-05,-0.00677566949538908,-9.810476097898295,0.0,0.0,0.0,0.0,0.0,0.0,0.0,0.0,0.0
1710444585.756131,362,1710444585,756000280,map,0.0004075169710634179,6.0863110247311765e-06,1.623612911200034e-08,0.9999999169464341,0.0,0.0,0.0,0.0,0.0,0.0,0.0,0.0,0.0,-0.0,0.0,-0.0,0.0,0.0,0.0,0.0,0.0,0.0,0.0,0.0,0.0,1.788704654921219e-05,-0.006760603034248804,-9.810476097898295,0.0,0.0,0.0,0.0,0.0,0.0,0.0,0.0,0.0
1710444585.7731607,363,1710444585,773028612,map,0.0004075169710634179,6.0863110247311765e-06,1.623612911200034e-08,0.9999999169464341,0.0,0.0,0.0,0.0,0.0,0.0,0.0,0.0,0.0,-0.0,0.0,-0.0,0.0,0.0,0.0,0.0,0.0,0.0,0.0,0.0,0.0,1.7894796793734377e-05,-0.006774836625655491,-9.810476097898295,0.0,0.0,0.0,0.0,0.0,0.0,0.0,0.0,0.0
1710444585.7897797,364,1710444585,789705515,map,0.0004075169710634179,6.0863110247311765e-06,1.623612911200034e-08,0.9999999169464341,0.0,0.0,0.0,0.0,0.0,0.0,0.0,0.0,0.0,-0.0,0.0,-0.0,0.0,0.0,0.0,0.0,0.0,0.0,0.0,0.0,0.0,1.7881365760309613e-05,-0.006767383999049469,-9.810476097898295,0.0,0.0,0.0,0.0,0.0,0.0,0.0,0.0,0.0
1710444585.8056753,365,1710444585,805581570,map,0.0004075169710634179,6.0863110247311765e-06,1.623612911200034e-08,0.9999999169464341,0.0,0.0,0.0,0.0,0.0,0.0,0.0,0.0,0.0,-0.0,0.0,-0.0,0.0,0.0,0.0,0.0,0.0,0.0,0.0,0.0,0.0,1.9976978233134823e-05,-0.006766548628205568,-9.810002054730333,0.0,0.0,0.0,0.0,0.0,0.0,0.0,0.0,0.0
1710444585.823162,366,1710444585,822874546,map,0.0004075169710634179,6.0863110247311765e-06,1.623612911200034e-08,0.9999999169464341,0.0,0.0,0.0,0.0,0.0,0.0,0.0,0.0,0.0,-0.0,0.0,-0.0,0.0,0.0,0.0,0.0,0.0,0.0,0.0,0.0,0.0,1.8398182547330922e-05,-0.006774305935522213,-9.810945484453608,0.0,0.0,0.0,0.0,0.0,0.0,0.0,0.0,0.0
1710444585.839066,367,1710444585,838938951,map,0.0004075169710634179,6.0863110247311765e-06,1.623612911200034e-08,0.9999999169464341,0.0,0.0,0.0,0.0,0.0,0.0,0.0,0.0,0.0,-0.0,0.0,-0.0,0.0,0.0,0.0,0.0,0.0,0.0,0.0,0.0,0.0,1.7937153132379638e-05,-0.006758944798112558,-9.810489602074986,0.0,0.0,0.0,0.0,0.0,0.0,0.0,0.0,0.0
1710444585.8558943,368,1710444585,855792046,map,0.0004075169710634179,6.0863110247311765e-06,1.623612911200034e-08,0.9999999169464341,0.0,0.0,0.0,0.0,0.0,0.0,0.0,0.0,0.0,-0.0,0.0,-0.0,0.0,0.0,0.0,0.0,0.0,0.0,0.0,0.0,0.0,1.7842059426212736e-05,-0.006773198625775399,-9.810475632237031,0.0,0.0,0.0,0.0,0.0,0.0,0.0,0.0,0.0
1710444585.872427,369,1710444585,872314453,map,0.0004075169710634179,6.0863110247311765e-06,1.623612911200034e-08,0.9999999169464341,0.0,0.0,0.0,0.0,0.0,0.0,0.0,0.0,0.0,-0.0,0.0,-0.0,0.0,0.0,0.0,0.0,0.0,0.0,0.0,0.0,0.0,1.82427824175092e-05,-0.006758371816477656,-9.810476097898295,0.0,0.0,0.0,0.0,0.0,0.0,0.0,0.0,0.0
1710444585.889519,370,1710444585,889412880,map,0.0004075169710634179,6.0863110247311765e-06,1.623612911200034e-08,0.9999999169464341,0.0,0.0,0.0,0.0,0.0,0.0,0.0,0.0,0.0,-0.0,0.0,-0.0,0.0,0.0,0.0,0.0,0.0,0.0,0.0,0.0,0.0,1.8413227400867628e-05,-0.006772640878176028,-9.810476097898295,0.0,0.0,0.0,0.0,0.0,0.0,0.0,0.0,0.0
1710444585.9057791,371,1710444585,905650854,map,0.0004075169710634179,6.0863110247311765e-06,1.623612911200034e-08,0.9999999169464341,0.0,0.0,0.0,0.0,0.0,0.0,0.0,0.0,0.0,-0.0,0.0,-0.0,0.0,0.0,0.0,0.0,0.0,0.0,0.0,0.0,0.0,1.7851505203257594e-05,-0.006757821344835555,-9.810476097898295,0.0,0.0,0.0,0.0,0.0,0.0,0.0,0.0,0.0
1710444585.9223247,372,1710444585,922064304,map,0.0004075169710634179,6.0863110247311765e-06,1.623612911200034e-08,0.9999999169464341,0.0,0.0,0.0,0.0,0.0,0.0,0.0,0.0,0.0,-0.0,0.0,-0.0,0.0,0.0,0.0,0.0,0.0,0.0,0.0,0.0,0.0,1.7874199048981452e-05,-0.006772099501480512,-9.810476097898295,0.0,0.0,0.0,0.0,0.0,0.0,0.0,0.0,0.0
1710444585.938946,373,1710444585,938692570,map,0.0004075169710634179,6.0863110247311765e-06,1.623612911200034e-08,0.9999999169464341,0.0,0.0,0.0,0.0,0.0,0.0,0.0,0.0,0.0,-0.0,0.0,-0.0,0.0,0.0,0.0,0.0,0.0,0.0,0.0,0.0,0.0,1.789806884287714e-05,-0.006756958007030903,-9.810002054730333,0.0,0.0,0.0,0.0,0.0,0.0,0.0,0.0,0.0
1710444585.9555628,374,1710444585,955453873,map,0.0004075169710634179,6.0863110247311765e-06,1.623612911200034e-08,0.9999999169464341,0.0,0.0,0.0,0.0,0.0,0.0,0.0,0.0,0.0,-0.0,0.0,-0.0,0.0,0.0,0.0,0.0,0.0,0.0,0.0,0.0,0.0,1.9622404102155604e-05,-0.006771896911545314,-9.810945484453608,0.0,0.0,0.0,0.0,0.0,0.0,0.0,0.0,0.0
1710444585.9727683,375,1710444585,972641945,map,0.0004075169710634179,6.0863110247311765e-06,1.623612911200034e-08,0.9999999169464341,0.0,0.0,0.0,0.0,0.0,0.0,0.0,0.0,0.0,-0.0,0.0,-0.0,0.0,0.0,0.0,0.0,0.0,0.0,0.0,0.0,0.0,1.872291033211216e-05,-0.0067567808829461454,-9.810489602074986,0.0,0.0,0.0,0.0,0.0,0.0,0.0,0.0,0.0
1710444585.98902,376,1710444585,988858938,map,0.0004075169710634179,6.0863110247311765e-06,1.623612911200034e-08,0.9999999169464341,0.0,0.0,0.0,0.0,0.0,0.0,0.0,0.0,0.0,-0.0,0.0,-0.0,0.0,0.0,0.0,0.0,0.0,0.0,0.0,0.0,0.0,1.7948981003832992e-05,-0.006763670304984846,-9.810476097898295,0.0,0.0,0.0,0.0,0.0,0.0,0.0,0.0,0.0
1710444586.0057256,377,1710444586,5583525,map,0.0004075169710634179,6.0863110247311765e-06,1.623612911200034e-08,0.9999999169464341,0.0,0.0,0.0,0.0,0.0,0.0,0.0,0.0,0.0,-0.0,0.0,-0.0,0.0,0.0,0.0,0.0,0.0,0.0,0.0,0.0,0.0,1.7856964835744173e-05,-0.006763631196714527,-9.810476097898295,0.0,0.0,0.0,0.0,0.0,0.0,0.0,0.0,0.0
1710444586.0228136,378,1710444586,22554636,map,0.0004075169710634179,6.0863110247311765e-06,1.623612911200034e-08,0.9999999169464341,0.0,0.0,0.0,0.0,0.0,0.0,0.0,0.0,0.0,-0.0,0.0,-0.0,0.0,0.0,0.0,0.0,0.0,0.0,0.0,0.0,0.0,1.7899156861389596e-05,-0.006755988485724863,-9.810476097898295,0.0,0.0,0.0,0.0,0.0,0.0,0.0,0.0,0.0
1710444586.039577,379,1710444586,39372921,map,0.0004075169710634179,6.0863110247311765e-06,1.623612911200034e-08,0.9999999169464341,0.0,0.0,0.0,0.0,0.0,0.0,0.0,0.0,0.0,-0.0,0.0,-0.0,0.0,0.0,0.0,0.0,0.0,0.0,0.0,0.0,0.0,1.824175568330479e-05,-0.006770503793102043,-9.810476097898295,0.0,0.0,0.0,0.0,0.0,0.0,0.0,0.0,0.0
1710444586.055998,380,1710444586,55876255,map,0.0004075169710634179,6.0863110247311765e-06,1.623612911200034e-08,0.9999999169464341,0.0,0.0,0.0,0.0,0.0,0.0,0.0,0.0,0.0,-0.0,0.0,-0.0,0.0,0.0,0.0,0.0,0.0,0.0,0.0,0.0,0.0,1.8441661543445358e-05,-0.006755721549042571,-9.810476097898295,0.0,0.0,0.0,0.0,0.0,0.0,0.0,0.0,0.0
1710444586.0726783,381,1710444586,72476625,map,0.0004075169710634179,6.0863110247311765e-06,1.623612911200034e-08,0.9999999169464341,0.0,0.0,0.0,0.0,0.0,0.0,0.0,0.0,0.0,-0.0,0.0,-0.0,0.0,0.0,0.0,0.0,0.0,0.0,0.0,0.0,0.0,1.7835767570586427e-05,-0.006762585050483502,-9.810410439659904,0.0,0.0,0.0,0.0,0.0,0.0,0.0,0.0,0.0
1710444586.0891886,382,1710444586,89107037,map,0.0004075169710634179,6.0863110247311765e-06,1.623612911200034e-08,0.9999999169464341,0.0,0.0,0.0,0.0,0.0,0.0,0.0,0.0,0.0,-0.0,0.0,-0.0,0.0,0.0,0.0,0.0,0.0,0.0,0.0,0.0,0.0,1.7958379707423845e-05,-0.00676237245610706,-9.810135699513442,0.0,0.0,0.0,0.0,0.0,0.0,0.0,0.0,0.0
1710444586.105786,383,1710444586,105656385,map,0.0004075169710634179,6.0863110247311765e-06,1.623612911200034e-08,0.9999999169464341,0.0,0.0,0.0,0.0,0.0,0.0,0.0,0.0,0.0,-0.0,0.0,-0.0,0.0,0.0,0.0,0.0,0.0,0.0,0.0,0.0,0.0,1.7876142383271453e-05,-0.006770059959708659,-9.810879360553951,0.0,0.0,0.0,0.0,0.0,0.0,0.0,0.0,0.0
1710444586.122315,384,1710444586,122167349,map,0.0004075169710634179,6.0863110247311765e-06,1.623612911200034e-08,0.9999999169464341,0.0,0.0,0.0,0.0,0.0,0.0,0.0,0.0,0.0,-0.0,0.0,-0.0,0.0,0.0,0.0,0.0,0.0,0.0,0.0,0.0,0.0,1.791274599056556e-05,-0.006769601119653408,-9.810487273768661,0.0,0.0,0.0,0.0,0.0,0.0,0.0,0.0,0.0
1710444586.1389985,385,1710444586,138875723,map,0.0004075169710634179,6.0863110247311765e-06,1.623612911200034e-08,0.9999999169464341,0.0,0.0,0.0,0.0,0.0,0.0,0.0,0.0,0.0,-0.0,0.0,-0.0,0.0,0.0,0.0,0.0,0.0,0.0,0.0,0.0,0.0,2.0024756012596428e-05,-0.006769191164936056,-9.810475632237031,0.0,0.0,0.0,0.0,0.0,0.0,0.0,0.0,0.0
1710444586.1556668,386,1710444586,155561447,map,0.0004075169710634179,6.0863110247311765e-06,1.623612911200034e-08,0.9999999169464341,0.0,0.0,0.0,0.0,0.0,0.0,0.0,0.0,0.0,-0.0,0.0,-0.0,0.0,0.0,0.0,0.0,0.0,0.0,0.0,0.0,0.0,1.839330644803837e-05,-0.006768795989506905,-9.810476097898295,0.0,0.0,0.0,0.0,0.0,0.0,0.0,0.0,0.0
1710444586.1724005,387,1710444586,172289848,map,0.0004075169710634179,6.0863110247311765e-06,1.623612911200034e-08,0.9999999169464341,0.0,0.0,0.0,0.0,0.0,0.0,0.0,0.0,0.0,-0.0,0.0,-0.0,0.0,0.0,0.0,0.0,0.0,0.0,0.0,0.0,0.0,1.7959979316681746e-05,-0.006761005713008888,-9.810476097898295,0.0,0.0,0.0,0.0,0.0,0.0,0.0,0.0,0.0
1710444586.1889138,388,1710444586,188817024,map,0.0004075169710634179,6.0863110247311765e-06,1.623612911200034e-08,0.9999999169464341,0.0,0.0,0.0,0.0,0.0,0.0,0.0,0.0,0.0,-0.0,0.0,-0.0,0.0,0.0,0.0,0.0,0.0,0.0,0.0,0.0,0.0,1.7868378816073605e-05,-0.006767971532598908,-9.810476097898295,0.0,0.0,0.0,0.0,0.0,0.0,0.0,0.0,0.0
1710444586.2055304,389,1710444586,205412865,map,0.0004075169710634179,6.0863110247311765e-06,1.623612911200034e-08,0.9999999169464341,0.0,0.0,0.0,0.0,0.0,0.0,0.0,0.0,0.0,-0.0,0.0,-0.0,0.0,0.0,0.0,0.0,0.0,0.0,0.0,0.0,0.0,1.789628982158698e-05,-0.006767470628415698,-9.810002054730333,0.0,0.0,0.0,0.0,0.0,0.0,0.0,0.0,0.0
1710444586.2223177,390,1710444586,222207546,map,0.0004075169710634179,6.0863110247311765e-06,1.623612911200034e-08,0.9999999169464341,0.0,0.0,0.0,0.0,0.0,0.0,0.0,0.0,0.0,-0.0,0.0,-0.0,0.0,0.0,0.0,0.0,0.0,0.0,0.0,0.0,0.0,1.7871007824071044e-05,-0.006767751889638862,-9.810945484453608,0.0,0.0,0.0,0.0,0.0,0.0,0.0,0.0,0.0
1710444586.2392435,391,1710444586,239068985,map,0.0004075169710634179,6.0863110247311765e-06,1.623612911200034e-08,0.9999999169464341,0.0,0.0,0.0,0.0,0.0,0.0,0.0,0.0,0.0,-0.0,0.0,-0.0,0.0,0.0,0.0,0.0,0.0,0.0,0.0,0.0,0.0,1.880529509387522e-05,-0.006767064993797974,-9.810489136413722,0.0,0.0,0.0,0.0,0.0,0.0,0.0,0.0,0.0
1710444586.2555437,392,1710444586,255428553,map,0.0004075169710634179,6.0863110247311765e-06,1.623612911200034e-08,0.9999999169464341,0.0,0.0,0.0,0.0,0.0,0.0,0.0,0.0,0.0,-0.0,0.0,-0.0,0.0,0.0,0.0,0.0,0.0,0.0,0.0,0.0,0.0,1.7925633458823284e-05,-0.006759286313356853,-9.810476097898295,0.0,0.0,0.0,0.0,0.0,0.0,0.0,0.0,0.0
1710444586.2725341,393,1710444586,272333622,map,0.0004075169710634179,6.0863110247311765e-06,1.623612911200034e-08,0.9999999169464341,0.0,0.0,0.0,0.0,0.0,0.0,0.0,0.0,0.0,-0.0,0.0,-0.0,0.0,0.0,0.0,0.0,0.0,0.0,0.0,0.0,0.0,1.792954766093299e-05,-0.006766278963039302,-9.810475632237031,0.0,0.0,0.0,0.0,0.0,0.0,0.0,0.0,0.0
1710444586.2894845,394,1710444586,289365053,map,0.0004075169710634179,6.0863110247311765e-06,1.623612911200034e-08,0.9999999169464341,0.0,0.0,0.0,0.0,0.0,0.0,0.0,0.0,0.0,-0.0,0.0,-0.0,0.0,0.0,0.0,0.0,0.0,0.0,0.0,0.0,0.0,1.792287033589084e-05,-0.0067661323070256066,-9.810475632237031,0.0,0.0,0.0,0.0,0.0,0.0,0.0,0.0,0.0
1710444586.305639,395,1710444586,305514574,map,0.0004075169710634179,6.0863110247311765e-06,1.623612911200034e-08,0.9999999169464341,0.0,0.0,0.0,0.0,0.0,0.0,0.0,0.0,0.0,-0.0,0.0,-0.0,0.0,0.0,0.0,0.0,0.0,0.0,0.0,0.0,0.0,1.7913007115008546e-05,-0.00676578237895572,-9.810475632237031,0.0,0.0,0.0,0.0,0.0,0.0,0.0,0.0,0.0
1710444586.322431,396,1710444586,322323084,map,0.0004075169710634179,6.0863110247311765e-06,1.623612911200034e-08,0.9999999169464341,0.0,0.0,0.0,0.0,0.0,0.0,0.0,0.0,0.0,-0.0,0.0,-0.0,0.0,0.0,0.0,0.0,0.0,0.0,0.0,0.0,0.0,1.7934397114874213e-05,-0.006758031438101685,-9.810476097898295,0.0,0.0,0.0,0.0,0.0,0.0,0.0,0.0,0.0
1710444586.3390257,397,1710444586,338897943,map,0.0004075169710634179,6.0863110247311765e-06,1.623612911200034e-08,0.9999999169464341,0.0,0.0,0.0,0.0,0.0,0.0,0.0,0.0,0.0,-0.0,0.0,-0.0,0.0,0.0,0.0,0.0,0.0,0.0,0.0,0.0,0.0,1.8724220395218994e-05,-0.00676499748506537,-9.81040997399864,0.0,0.0,0.0,0.0,0.0,0.0,0.0,0.0,0.0
1710444586.355673,398,1710444586,355567932,map,0.0004075169710634179,6.0863110247311765e-06,1.623612911200034e-08,0.9999999169464341,0.0,0.0,0.0,0.0,0.0,0.0,0.0,0.0,0.0,-0.0,0.0,-0.0,0.0,0.0,0.0,0.0,0.0,0.0,0.0,0.0,0.0,1.982120950928643e-05,-0.006764682799913504,-9.810135233852177,0.0,0.0,0.0,0.0,0.0,0.0,0.0,0.0,0.0
1710444586.3724225,399,1710444586,372314215,map,0.0004075169710634179,6.0863110247311765e-06,1.623612911200034e-08,0.9999999169464341,0.0,0.0,0.0,0.0,0.0,0.0,0.0,0.0,0.0,-0.0,0.0,-0.0,0.0,0.0,0.0,0.0,0.0,0.0,0.0,0.0,0.0,1.7897356523818373e-05,-0.006757465050303058,-9.810878894892685,0.0,0.0,0.0,0.0,0.0,0.0,0.0,0.0,0.0
1710444586.3895059,400,1710444586,389379025,map,0.0004075169710634179,6.0863110247311765e-06,1.623612911200034e-08,0.9999999169464341,0.0,0.0,0.0,0.0,0.0,0.0,0.0,0.0,0.0,-0.0,0.0,-0.0,0.0,0.0,0.0,0.0,0.0,0.0,0.0,0.0,0.0,1.7979591183435632e-05,-0.006764218048142972,-9.810486808107395,0.0,0.0,0.0,0.0,0.0,0.0,0.0,0.0,0.0
1710444586.4060566,401,1710444586,405913591,map,0.0004075169710634179,6.0863110247311765e-06,1.623612911200034e-08,0.9999999169464341,0.0,0.0,0.0,0.0,0.0,0.0,0.0,0.0,0.0,-0.0,0.0,-0.0,0.0,0.0,0.0,0.0,0.0,0.0,0.0,0.0,0.0,1.7897649622682953e-05,-0.006764090491517107,-9.810475632237031,0.0,0.0,0.0,0.0,0.0,0.0,0.0,0.0,0.0
1710444586.4231813,402,1710444586,423051357,map,0.0004075169710634179,6.0863110247311765e-06,1.623612911200034e-08,0.9999999169464341,0.0,0.0,0.0,0.0,0.0,0.0,0.0,0.0,0.0,-0.0,0.0,-0.0,0.0,0.0,0.0,0.0,0.0,0.0,0.0,0.0,0.0,1.7917183329739618e-05,-0.006756364334392519,-9.810476097898295,0.0,0.0,0.0,0.0,0.0,0.0,0.0,0.0,0.0
1710444586.4391494,403,1710444586,439045906,map,0.0004075169710634179,6.0863110247311765e-06,1.623612911200034e-08,0.9999999169464341,0.0,0.0,0.0,0.0,0.0,0.0,0.0,0.0,0.0,-0.0,0.0,-0.0,0.0,0.0,0.0,0.0,0.0,0.0,0.0,0.0,0.0,1.795683072433346e-05,-0.006755995761682131,-9.810476097898295,0.0,0.0,0.0,0.0,0.0,0.0,0.0,0.0,0.0
1710444586.4559262,404,1710444586,455752611,map,0.0004075169710634179,6.0863110247311765e-06,1.623612911200034e-08,0.9999999169464341,0.0,0.0,0.0,0.0,0.0,0.0,0.0,0.0,0.0,-0.0,0.0,-0.0,0.0,0.0,0.0,0.0,0.0,0.0,0.0,0.0,0.0,1.792286678317733e-05,-0.0067632494363315905,-9.810475632237031,0.0,0.0,0.0,0.0,0.0,0.0,0.0,0.0,0.0
1710444586.4727805,405,1710444586,472682714,map,0.0004075169710634179,6.0863110247311765e-06,1.623612911200034e-08,0.9999999169464341,0.0,0.0,0.0,0.0,0.0,0.0,0.0,0.0,0.0,-0.0,0.0,-0.0,0.0,0.0,0.0,0.0,0.0,0.0,0.0,0.0,0.0,1.884889132953549e-05,-0.006763150301413806,-9.810475632237031,0.0,0.0,0.0,0.0,0.0,0.0,0.0,0.0,0.0
1710444586.4896379,406,1710444586,489524126,map,0.0004075169710634179,6.0863110247311765e-06,1.623612911200034e-08,0.9999999169464341,0.0,0.0,0.0,0.0,0.0,0.0,0.0,0.0,0.0,-0.0,0.0,-0.0,0.0,0.0,0.0,0.0,0.0,0.0,0.0,0.0,0.0,1.7894296749307837e-05,-0.006755114916105302,-9.810002054730333,0.0,0.0,0.0,0.0,0.0,0.0,0.0,0.0,0.0
1710444586.505829,407,1710444586,505677700,map,0.0004075169710634179,6.0863110247311765e-06,1.623612911200034e-08,0.9999999169464341,0.0,0.0,0.0,0.0,0.0,0.0,0.0,0.0,0.0,-0.0,0.0,-0.0,0.0,0.0,0.0,0.0,0.0,0.0,0.0,0.0,0.0,1.802397434513838e-05,-0.006755413230353315,-9.810945950114872,0.0,0.0,0.0,0.0,0.0,0.0,0.0,0.0,0.0
1710444586.5222921,408,1710444586,522145271,map,0.0004075169710634179,6.0863110247311765e-06,1.623612911200034e-08,0.9999999169464341,0.0,0.0,0.0,0.0,0.0,0.0,0.0,0.0,0.0,-0.0,0.0,-0.0,0.0,0.0,0.0,0.0,0.0,0.0,0.0,0.0,0.0,1.795212604346777e-05,-0.006762359495808176,-9.810489136413722,0.0,0.0,0.0,0.0,0.0,0.0,0.0,0.0,0.0
1710444586.538842,409,1710444586,538719893,map,0.0004075169710634179,6.0863110247311765e-06,1.623612911200034e-08,0.9999999169464341,0.0,0.0,0.0,0.0,0.0,0.0,0.0,0.0,0.0,-0.0,0.0,-0.0,0.0,0.0,0.0,0.0,0.0,0.0,0.0,0.0,0.0,1.796599850154616e-05,-0.006754866851437176,-9.810476097898295,0.0,0.0,0.0,0.0,0.0,0.0,0.0,0.0,0.0
1710444586.5555408,410,1710444586,555350304,map,0.0004075169710634179,6.0863110247311765e-06,1.623612911200034e-08,0.9999999169464341,0.0,0.0,0.0,0.0,0.0,0.0,0.0,0.0,0.0,-0.0,0.0,-0.0,0.0,0.0,0.0,0.0,0.0,0.0,0.0,0.0,0.0,1.7962401379117228e-05,-0.006754524654071887,-9.810476097898295,0.0,0.0,0.0,0.0,0.0,0.0,0.0,0.0,0.0
1710444586.5722823,411,1710444586,572175264,map,0.0004075169710634179,6.0863110247311765e-06,1.623612911200034e-08,0.9999999169464341,0.0,0.0,0.0,0.0,0.0,0.0,0.0,0.0,0.0,-0.0,0.0,-0.0,0.0,0.0,0.0,0.0,0.0,0.0,0.0,0.0,0.0,1.8027574132102444e-05,-0.006761798110230171,-9.810475632237031,0.0,0.0,0.0,0.0,0.0,0.0,0.0,0.0,0.0
1710444586.5889943,412,1710444586,588885069,map,0.0004075169710634179,6.0863110247311765e-06,1.623612911200034e-08,0.9999999169464341,0.0,0.0,0.0,0.0,0.0,0.0,0.0,0.0,0.0,-0.0,0.0,-0.0,0.0,0.0,0.0,0.0,0.0,0.0,0.0,0.0,0.0,1.7957179778435822e-05,-0.0067543184261580555,-9.810476097898295,0.0,0.0,0.0,0.0,0.0,0.0,0.0,0.0,0.0
1710444586.6060119,413,1710444586,605872869,map,0.0004075169710634179,6.0863110247311765e-06,1.623612911200034e-08,0.9999999169464341,0.0,0.0,0.0,0.0,0.0,0.0,0.0,0.0,0.0,-0.0,0.0,-0.0,0.0,0.0,0.0,0.0,0.0,0.0,0.0,0.0,0.0,1.9756050967155255e-05,-0.006753935983654125,-9.810410439659904,0.0,0.0,0.0,0.0,0.0,0.0,0.0,0.0,0.0
1710444586.6223352,414,1710444586,622199535,map,0.0004075169710634179,6.0863110247311765e-06,1.623612911200034e-08,0.9999999169464341,0.0,0.0,0.0,0.0,0.0,0.0,0.0,0.0,0.0,-0.0,0.0,-0.0,0.0,0.0,0.0,0.0,0.0,0.0,0.0,0.0,0.0,1.8843726572270247e-05,-0.006761026631386035,-9.810135233852177,0.0,0.0,0.0,0.0,0.0,0.0,0.0,0.0,0.0
1710444586.6389427,415,1710444586,638801575,map,0.0004075169710634179,6.0863110247311765e-06,1.623612911200034e-08,0.9999999169464341,0.0,0.0,0.0,0.0,0.0,0.0,0.0,0.0,0.0,-0.0,0.0,-0.0,0.0,0.0,0.0,0.0,0.0,0.0,0.0,0.0,0.0,1.8067979142852306e-05,-0.0067466670749691355,-9.810878894892685,0.0,0.0,0.0,0.0,0.0,0.0,0.0,0.0,0.0
1710444586.6555743,416,1710444586,655458450,map,0.0004075169710634179,6.0863110247311765e-06,1.623612911200034e-08,0.9999999169464341,0.0,0.0,0.0,0.0,0.0,0.0,0.0,0.0,0.0,-0.0,0.0,-0.0,0.0,0.0,0.0,0.0,0.0,0.0,0.0,0.0,0.0,1.7958047528710656e-05,-0.006760826542561149,-9.810487273768661,0.0,0.0,0.0,0.0,0.0,0.0,0.0,0.0,0.0
1710444586.6721842,417,1710444586,672049761,map,0.0004075169710634179,6.0863110247311765e-06,1.623612911200034e-08,0.9999999169464341,0.0,0.0,0.0,0.0,0.0,0.0,0.0,0.0,0.0,-0.0,0.0,-0.0,0.0,0.0,0.0,0.0,0.0,0.0,0.0,0.0,0.0,1.797694085915713e-05,-0.006753558088623488,-9.810476097898295,0.0,0.0,0.0,0.0,0.0,0.0,0.0,0.0,0.0
1710444586.689855,418,1710444586,689688683,map,0.0004075169710634179,6.0863110247311765e-06,1.623612911200034e-08,0.9999999169464341,0.0,0.0,0.0,0.0,0.0,0.0,0.0,0.0,0.0,-0.0,0.0,-0.0,0.0,0.0,0.0,0.0,0.0,0.0,0.0,0.0,0.0,1.795057173130712e-05,-0.006753242039229633,-9.810476097898295,0.0,0.0,0.0,0.0,0.0,0.0,0.0,0.0,0.0
1710444586.7064111,419,1710444586,706280947,map,0.0004075169710634179,6.0863110247311765e-06,1.623612911200034e-08,0.9999999169464341,0.0,0.0,0.0,0.0,0.0,0.0,0.0,0.0,0.0,-0.0,0.0,-0.0,0.0,0.0,0.0,0.0,0.0,0.0,0.0,0.0,0.0,1.802477814657003e-05,-0.006753131763002281,-9.810476097898295,0.0,0.0,0.0,0.0,0.0,0.0,0.0,0.0,0.0
1710444586.7223635,420,1710444586,722243309,map,0.0004075169710634179,6.0863110247311765e-06,1.623612911200034e-08,0.9999999169464341,0.0,0.0,0.0,0.0,0.0,0.0,0.0,0.0,0.0,-0.0,0.0,-0.0,0.0,0.0,0.0,0.0,0.0,0.0,0.0,0.0,0.0,1.796708474370186e-05,-0.006753031491216173,-9.810476097898295,0.0,0.0,0.0,0.0,0.0,0.0,0.0,0.0,0.0
1710444586.739416,421,1710444586,739185572,map,0.0004075169710634179,6.0863110247311765e-06,1.623612911200034e-08,0.9999999169464341,0.0,0.0,0.0,0.0,0.0,0.0,0.0,0.0,0.0,-0.0,0.0,-0.0,0.0,0.0,0.0,0.0,0.0,0.0,0.0,0.0,0.0,1.803393082475031e-05,-0.006752926217209443,-9.810476097898295,0.0,0.0,0.0,0.0,0.0,0.0,0.0,0.0,0.0
1710444586.7567263,422,1710444586,756525278,map,0.0004075169710634179,6.0863110247311765e-06,1.623612911200034e-08,0.9999999169464341,0.0,0.0,0.0,0.0,0.0,0.0,0.0,0.0,0.0,-0.0,0.0,-0.0,0.0,0.0,0.0,0.0,0.0,0.0,0.0,0.0,0.0,1.8018439217489713e-05,-0.006752497163104261,-9.810002054730333,0.0,0.0,0.0,0.0,0.0,0.0,0.0,0.0,0.0
1710444586.773761,423,1710444586,773569584,map,0.0004075169710634179,6.0863110247311765e-06,1.623612911200034e-08,0.9999999169464341,0.0,0.0,0.0,0.0,0.0,0.0,0.0,0.0,0.0,-0.0,0.0,-0.0,0.0,0.0,0.0,0.0,0.0,0.0,0.0,0.0,0.0,1.889662914097011e-05,-0.006753046725251705,-9.810945484453608,0.0,0.0,0.0,0.0,0.0,0.0,0.0,0.0,0.0
1710444586.7903056,424,1710444586,790193558,map,0.0004075169710634179,6.0863110247311765e-06,1.623612911200034e-08,0.9999999169464341,0.0,0.0,0.0,0.0,0.0,0.0,0.0,0.0,0.0,-0.0,0.0,-0.0,0.0,0.0,0.0,0.0,0.0,0.0,0.0,0.0,0.0,1.8005123647254024e-05,-0.006760029370492908,-9.810489136413722,0.0,0.0,0.0,0.0,0.0,0.0,0.0,0.0,0.0
1710444586.8060396,425,1710444586,805898190,map,0.0004075169710634179,6.0863110247311765e-06,1.623612911200034e-08,0.9999999169464341,0.0,0.0,0.0,0.0,0.0,0.0,0.0,0.0,0.0,-0.0,0.0,-0.0,0.0,0.0,0.0,0.0,0.0,0.0,0.0,0.0,0.0,1.8044186620475463e-05,-0.006759965023745814,-9.810475166575765,0.0,0.0,0.0,0.0,0.0,0.0,0.0,0.0,0.0
1710444586.8227067,426,1710444586,822520018,map,0.0004075169710634179,6.0863110247311765e-06,1.623612911200034e-08,0.9999999169464341,0.0,0.0,0.0,0.0,0.0,0.0,0.0,0.0,0.0,-0.0,0.0,-0.0,0.0,0.0,0.0,0.0,0.0,0.0,0.0,0.0,0.0,1.802975549819762e-05,-0.006759698996558181,-9.810475632237031,0.0,0.0,0.0,0.0,0.0,0.0,0.0,0.0,0.0
1710444586.8393312,427,1710444586,839190245,map,0.0004075169710634179,6.0863110247311765e-06,1.623612911200034e-08,0.9999999169464341,0.0,0.0,0.0,0.0,0.0,0.0,0.0,0.0,0.0,-0.0,0.0,-0.0,0.0,0.0,0.0,0.0,0.0,0.0,0.0,0.0,0.0,1.8030689861850762e-05,-0.006759431150381231,-9.810475632237031,0.0,0.0,0.0,0.0,0.0,0.0,0.0,0.0,0.0
1710444586.855816,428,1710444586,855622292,map,0.0004075169710634179,6.0863110247311765e-06,1.623612911200034e-08,0.9999999169464341,0.0,0.0,0.0,0.0,0.0,0.0,0.0,0.0,0.0,-0.0,0.0,-0.0,0.0,0.0,0.0,0.0,0.0,0.0,0.0,0.0,0.0,1.8044574754426438e-05,-0.006759163304204281,-9.810475632237031,0.0,0.0,0.0,0.0,0.0,0.0,0.0,0.0,0.0
1710444586.8736,429,1710444586,873459578,map,0.0004075169710634179,6.0863110247311765e-06,1.623612911200034e-08,0.9999999169464341,0.0,0.0,0.0,0.0,0.0,0.0,0.0,0.0,0.0,-0.0,0.0,-0.0,0.0,0.0,0.0,0.0,0.0,0.0,0.0,0.0,0.0,1.804608821038172e-05,-0.006758900914995283,-9.810475632237031,0.0,0.0,0.0,0.0,0.0,0.0,0.0,0.0,0.0
1710444586.8895068,430,1710444586,889370918,map,0.0004075169710634179,6.0863110247311765e-06,1.623612911200034e-08,0.9999999169464341,0.0,0.0,0.0,0.0,0.0,0.0,0.0,0.0,0.0,-0.0,0.0,-0.0,0.0,0.0,0.0,0.0,0.0,0.0,0.0,0.0,0.0,1.8038905511842767e-05,-0.006758596689031989,-9.81040997399864,0.0,0.0,0.0,0.0,0.0,0.0,0.0,0.0,0.0
1710444586.9060504,431,1710444586,905892611,map,0.0004075169710634179,6.0863110247311765e-06,1.623612911200034e-08,0.9999999169464341,0.0,0.0,0.0,0.0,0.0,0.0,0.0,0.0,0.0,-0.0,0.0,-0.0,0.0,0.0,0.0,0.0,0.0,0.0,0.0,0.0,0.0,1.807573382826638e-05,-0.006758151264022952,-9.810134768190911,0.0,0.0,0.0,0.0,0.0,0.0,0.0,0.0,0.0
1710444586.9229367,432,1710444586,922762394,map,0.0004075169710634179,6.0863110247311765e-06,1.623612911200034e-08,0.9999999169464341,0.0,0.0,0.0,0.0,0.0,0.0,0.0,0.0,0.0,-0.0,0.0,-0.0,0.0,0.0,0.0,0.0,0.0,0.0,0.0,0.0,0.0,1.8076767667897807e-05,-0.006765814666016099,-9.810878894892685,0.0,0.0,0.0,0.0,0.0,0.0,0.0,0.0,0.0
1710444586.9398005,433,1710444586,939552069,map,0.0004075169710634179,6.0863110247311765e-06,1.623612911200034e-08,0.9999999169464341,0.0,0.0,0.0,0.0,0.0,0.0,0.0,0.0,0.0,-0.0,0.0,-0.0,0.0,0.0,0.0,0.0,0.0,0.0,0.0,0.0,0.0,1.808194752419547e-05,-0.006757938214899182,-9.810486808107395,0.0,0.0,0.0,0.0,0.0,0.0,0.0,0.0,0.0
1710444586.95652,434,1710444586,956329823,map,0.0004075169710634179,6.0863110247311765e-06,1.623612911200034e-08,0.9999999169464341,0.0,0.0,0.0,0.0,0.0,0.0,0.0,0.0,0.0,-0.0,0.0,-0.0,0.0,0.0,0.0,0.0,0.0,0.0,0.0,0.0,0.0,1.9775790731595503e-05,-0.006757470962018339,-9.810475632237031,0.0,0.0,0.0,0.0,0.0,0.0,0.0,0.0,0.0
1710444586.974929,435,1710444586,974679470,map,0.0004075169710634179,6.0863110247311765e-06,1.623612911200034e-08,0.9999999169464341,0.0,0.0,0.0,0.0,0.0,0.0,0.0,0.0,0.0,-0.0,0.0,-0.0,0.0,0.0,0.0,0.0,0.0,0.0,0.0,0.0,0.0,1.8466947981853182e-05,-0.006757224261592201,-9.810475632237031,0.0,0.0,0.0,0.0,0.0,0.0,0.0,0.0,0.0
1710444586.9895377,436,1710444586,989446640,map,0.0004075169710634179,6.0863110247311765e-06,1.623612911200034e-08,0.9999999169464341,0.0,0.0,0.0,0.0,0.0,0.0,0.0,0.0,0.0,-0.0,0.0,-0.0,0.0,0.0,0.0,0.0,0.0,0.0,0.0,0.0,0.0,3.700149344366219e-06,-0.007763390244294631,-9.810475166575765,0.0,0.0,0.0,0.0,0.0,0.0,0.0,0.0,0.0
1710444587.0063334,437,1710444587,6192923,map,0.000409886279813951,5.735665670556368e-06,-3.201267043210722e-07,0.9999999159801151,0.0,0.0,0.0,0.0,0.0,0.0,0.0,0.0,0.0,0.0004738621742256398,-7.015664555539454e-05,-6.724093201701722e-05,0.0,0.0,0.0,0.0,0.0,0.0,0.0,0.0,0.0,0.001183074389327997,-0.009219423207946277,-9.81047376959197,0.0,0.0,0.0,0.0,0.0,0.0,0.0,0.0,0.0
1710444587.0228205,438,1710444587,22536993,map,0.00041512031228310573,5.763904107035618e-06,-3.4986098719959476e-07,0.9999999138208869,0.0,0.0,0.0,0.0,0.0,0.0,0.0,0.0,0.0,0.001046806615359724,5.6455557672388675e-06,-5.94319654086753e-06,0.0,0.0,0.0,0.0,0.0,0.0,0.0,0.0,0.0,0.00173429940564615,-0.01035132796406492,-9.81047283826944,0.0,0.0,0.0,0.0,0.0,0.0,0.0,0.0,0.0
1710444587.0401793,439,1710444587,39993763,map,0.00042307378117965004,5.783967652731002e-06,-3.815302537572602e-07,0.9999999104874839,0.0,0.0,0.0,0.0,0.0,0.0,0.0,0.0,0.0,0.0015906939542244128,4.010589529917895e-06,-6.326382047898768e-06,0.0,0.0,0.0,0.0,0.0,0.0,0.0,0.0,0.0,-0.0027981202584860215,-0.013666521487065967,-9.811481926231107,0.0,0.0,0.0,0.0,0.0,0.0,0.0,0.0,0.0
1710444587.0562322,440,1710444587,56117296,map,0.00043368713158311987,5.880794708553237e-06,-4.0591318031254045e-07,0.9999999059403573,0.0,0.0,0.0,0.0,0.0,0.0,0.0,0.0,0.0,0.002122670296771609,1.936410968390114e-05,-4.8727062825319075e-06,0.0,0.0,0.0,0.0,0.0,0.0,0.0,0.0,0.0,9.305844541483179e-07,-0.018572564868069432,-9.810936636889569,0.0,0.0,0.0,0.0,0.0,0.0,0.0,0.0,0.0
1710444587.0727634,441,1710444587,72620630,map,0.00044730684389620174,5.943154432422687e-06,-4.3427167289462774e-07,0.9999998999405338,0.0,0.0,0.0,0.0,0.0,0.0,0.0,0.0,0.0,0.0027239427555413517,1.2470519495455506e-05,-5.661258290985967e-06,0.0,0.0,0.0,0.0,0.0,0.0,0.0,0.0,0.0,-0.0003993879703772224,-0.023647175808082368,-9.81130637193413,0.0,0.0,0.0,0.0,0.0,0.0,0.0,0.0,0.0
1710444587.090302,442,1710444587,90199947,map,0.00046360123484259536,6.020919019854197e-06,-4.6051898063135883e-07,0.99999989251871,0.0,0.0,0.0,0.0,0.0,0.0,0.0,0.0,0.0,0.0032588785521592703,1.5551906533676997e-05,-5.237303986352816e-06,0.0,0.0,0.0,0.0,0.0,0.0,0.0,0.0,0.0,0.00019885478984861717,-0.030042036024574108,-9.81135480070571,0.0,0.0,0.0,0.0,0.0,0.0,0.0,0.0,0.0
1710444587.1064358,443,1710444587,106257915,map,0.0004828721585272824,6.1038707986199556e-06,-4.859339548022113e-07,0.9999998833984859,0.0,0.0,0.0,0.0,0.0,0.0,0.0,0.0,0.0,0.0038541851919371623,1.6589685736843563e-05,-5.067800402622419e-06,0.0,0.0,0.0,0.0,0.0,0.0,0.0,0.0,0.0,-6.099156029189547e-05,-0.03751428224937092,-9.81091428514884,0.0,0.0,0.0,0.0,0.0,0.0,0.0,0.0,0.0
1710444587.1226923,444,1710444587,122555971,map,0.0005043819806930514,6.193760647294143e-06,-5.105455028197632e-07,0.9999998727800891,0.0,0.0,0.0,0.0,0.0,0.0,0.0,0.0,0.0,0.004301964979085563,1.7977588721474874e-05,-4.905119183421267e-06,0.0,0.0,0.0,0.0,0.0,0.0,0.0,0.0,0.0,1.6138164704114375e-05,-0.047227361877592786,-9.811623487255725,0.0,0.0,0.0,0.0,0.0,0.0,0.0,0.0,0.0
1710444587.13942,445,1710444587,139318466,map,0.0005267449248315142,6.2925370817344305e-06,-5.340835368089645e-07,0.9999998612499419,0.0,0.0,0.0,0.0,0.0,0.0,0.0,0.0,0.0,0.00447258944171781,1.975510280161435e-05,-4.6903112258230375e-06,0.0,0.0,0.0,0.0,0.0,0.0,0.0,0.0,0.0,-2.2106528889943214e-06,-0.05597930164780059,-9.810921270067817,0.0,0.0,0.0,0.0,0.0,0.0,0.0,0.0,0.0
1710444587.155976,446,1710444587,155870914,map,0.000548906672483001,6.401017451548587e-06,-5.561586740944209e-07,0.99999984933008,0.0,0.0,0.0,0.0,0.0,0.0,0.0,0.0,0.0,0.004432350188088205,2.1696030120096535e-05,-4.399046513912639e-06,0.0,0.0,0.0,0.0,0.0,0.0,0.0,0.0,0.0,-2.680305316950453e-05,-0.06532741607619848,-9.811145253136374,0.0,0.0,0.0,0.0,0.0,0.0,0.0,0.0,0.0
1710444587.172092,447,1710444587,171966314,map,0.0005695857202068388,6.520348614553932e-06,-5.765879322161287e-07,0.9999998377646169,0.0,0.0,0.0,0.0,0.0,0.0,0.0,0.0,0.0,0.004135810204958459,2.3866217006316425e-05,-4.072972772012656e-06,0.0,0.0,0.0,0.0,0.0,0.0,0.0,0.0,0.0,-1.2746241678453566e-05,-0.07495949292689642,-9.810714050804808,0.0,0.0,0.0,0.0,0.0,0.0,0.0,0.0,0.0
1710444587.1885006,448,1710444587,188342571,map,0.0005880743299706677,6.652480845313618e-06,-5.949399376189958e-07,0.9999998270619715,0.0,0.0,0.0,0.0,0.0,0.0,0.0,0.0,0.0,0.0036977225814689113,2.6426429577762584e-05,-3.661831998112809e-06,0.0,0.0,0.0,0.0,0.0,0.0,0.0,0.0,0.0,-4.735177846959638e-05,-0.08380648853134512,-9.81027819186059,0.0,0.0,0.0,0.0,0.0,0.0,0.0,0.0,0.0
1710444587.2055187,449,1710444587,205388546,map,0.0006041564024911066,6.8004883107694436e-06,-6.102434307705831e-07,0.9999998174741944,0.0,0.0,0.0,0.0,0.0,0.0,0.0,0.0,0.0,0.0032164150788538265,2.9601565221521724e-05,-3.057186039172283e-06,0.0,0.0,0.0,0.0,0.0,0.0,0.0,0.0,0.0,2.3580362319627654e-05,-0.09209129365501602,-9.810598101149775,0.0,0.0,0.0,0.0,0.0,0.0,0.0,0.0,0.0
1710444587.2225463,450,1710444587,222344637,map,0.0006172880825865743,6.93623620927157e-06,-6.140739130560523e-07,0.9999998094534492,0.0,0.0,0.0,0.0,0.0,0.0,0.0,0.0,0.0,0.0026263364976976712,2.7150715472801955e-05,-7.649960558267171e-07,0.0,0.0,0.0,0.0,0.0,0.0,0.0,0.0,0.0,-6.70300417752483e-05,-0.09966726774562322,-9.810190647542735,0.0,0.0,0.0,0.0,0.0,0.0,0.0,0.0,0.0
1710444587.2397501,451,1710444587,239611864,map,0.0006271749996533613,7.003184983882288e-06,-5.97458349878133e-07,0.9999998033010399,0.0,0.0,0.0,0.0,0.0,0.0,0.0,0.0,0.0,0.0019773837646727336,1.3393059391644906e-05,3.3284290931302213e-06,0.0,0.0,0.0,0.0,0.0,0.0,0.0,0.0,0.0,0.00016241348827122055,-0.1046422908395116,-9.8091610704854,0.0,0.0,0.0,0.0,0.0,0.0,0.0,0.0,0.0
1710444587.2563994,452,1710444587,256209612,map,0.0006345063683316331,7.098320374559621e-06,-5.750234994131933e-07,0.9999997986754556,0.0,0.0,0.0,0.0,0.0,0.0,0.0,0.0,0.0,0.0014662739842453967,1.9030803907488524e-05,4.485164414428806e-06,0.0,0.0,0.0,0.0,0.0,0.0,0.0,0.0,0.0,0.0005195847274332729,-0.10380245255784823,-9.808880742403755,0.0,0.0,0.0,0.0,0.0,0.0,0.0,0.0,0.0
1710444587.273066,453,1710444587,272969007,map,0.0006403252696182067,7.2021250747313115e-06,-5.459723597026782e-07,0.9999997949656692,0.0,0.0,0.0,0.0,0.0,0.0,0.0,0.0,0.0,0.001163780440016777,2.0765330729133308e-05,5.805193450835939e-06,0.0,0.0,0.0,0.0,0.0,0.0,0.0,0.0,0.0,-3.2450414812712014e-05,-0.10701543616162404,-9.809638373282219,0.0,0.0,0.0,0.0,0.0,0.0,0.0,0.0,0.0
1710444587.2901762,454,1710444587,290067434,map,0.0006452650026694591,7.321699507142408e-06,-5.096125208393616e-07,0.9999997917895831,0.0,0.0,0.0,0.0,0.0,0.0,0.0,0.0,0.0,0.0009879467481379212,2.3920117850814836e-05,7.263649784844256e-06,0.0,0.0,0.0,0.0,0.0,0.0,0.0,0.0,0.0,1.1424444847075203e-05,-0.11072515937256801,-9.80919878904788,0.0,0.0,0.0,0.0,0.0,0.0,0.0,0.0,0.0
1710444587.306152,455,1710444587,306016922,map,0.0006498173056358697,7.386419130298593e-06,-4.541040666548768e-07,0.9999997888413297,0.0,0.0,0.0,0.0,0.0,0.0,0.0,0.0,0.0,0.0009104606956004193,1.295160429855172e-05,1.1099943122713039e-05,0.0,0.0,0.0,0.0,0.0,0.0,0.0,0.0,0.0,9.867433157065235e-05,-0.1186241877848901,-9.80881927511675,0.0,0.0,0.0,0.0,0.0,0.0,0.0,0.0,0.0
1710444587.322712,456,1710444587,322543144,map,0.0006544925821026647,7.487958728284871e-06,-3.9131891090516974e-07,0.9999997857915958,0.0,0.0,0.0,0.0,0.0,0.0,0.0,0.0,0.0,0.0009350553890230201,2.0316562880901076e-05,1.255064350872629e-05,0.0,0.0,0.0,0.0,0.0,0.0,0.0,0.0,0.0,0.0005591871730957874,-0.11715829157903988,-9.808737784395342,0.0,0.0,0.0,0.0,0.0,0.0,0.0,0.0,0.0
1710444587.3392618,457,1710444587,339157343,map,0.0006603077975785443,7.598540984216708e-06,-3.1919352012558767e-07,0.9999997819678627,0.0,0.0,0.0,0.0,0.0,0.0,0.0,0.0,0.0,0.0011630432283056713,2.2126432253657077e-05,1.4419179862393527e-05,0.0,0.0,0.0,0.0,0.0,0.0,0.0,0.0,0.0,7.223956200947315e-05,-0.11786789932054201,-9.808827657019524,0.0,0.0,0.0,0.0,0.0,0.0,0.0,0.0,0.0
1710444587.3556743,458,1710444587,355549812,map,0.000667791863710273,7.66687083561168e-06,-2.2527031567591025e-07,0.9999997769975727,0.0,0.0,0.0,0.0,0.0,0.0,0.0,0.0,0.0,0.0014968134080077147,1.3678996873383298e-05,1.8786883952889194e-05,0.0,0.0,0.0,0.0,0.0,0.0,0.0,0.0,0.0,0.00021186673097688238,-0.12155323079423767,-9.80966631295813,0.0,0.0,0.0,0.0,0.0,0.0,0.0,0.0,0.0
1710444587.3724995,459,1710444587,372369766,map,0.0006771013202668449,7.776808232196012e-06,-1.2159560617032303e-07,0.999999770736628,0.0,0.0,0.0,0.0,0.0,0.0,0.0,0.0,0.0,0.00186189156613037,2.2001943094583847e-05,2.073432399023379e-05,0.0,0.0,0.0,0.0,0.0,0.0,0.0,0.0,0.0,0.0005036855457733745,-0.1199930027118948,-9.80929844055863,0.0,0.0,0.0,0.0,0.0,0.0,0.0,0.0,0.0
1710444587.3896172,460,1710444587,389500141,map,0.0006885417225392373,7.87012825403159e-06,6.410715543887635e-09,0.9999997629241506,0.0,0.0,0.0,0.0,0.0,0.0,0.0,0.0,0.0,0.002288080784165678,1.8681918056294207e-05,2.5606201097320547e-05,0.0,0.0,0.0,0.0,0.0,0.0,0.0,0.0,0.0,4.60774800855799e-05,-0.12297270730220893,-9.809776209016716,0.0,0.0,0.0,0.0,0.0,0.0,0.0,0.0,0.0
1710444587.4054315,461,1710444587,405345917,map,0.0007020123665040024,7.966482782475172e-06,1.4223304121499437e-07,0.9999997535575458,0.0,0.0,0.0,0.0,0.0,0.0,0.0,0.0,0.0,0.0026941292278962626,1.9289968487589524e-05,2.717213317685364e-05,0.0,0.0,0.0,0.0,0.0,0.0,0.0,0.0,0.0,0.00039059912203479274,-0.1271594854726782,-9.809794369806058,0.0,0.0,0.0,0.0,0.0,0.0,0.0,0.0,0.0
1710444587.4228103,462,1710444587,422608376,map,0.0007171146437243898,8.060714057050333e-06,3.074778415043519e-07,0.9999997428407259,0.0,0.0,0.0,0.0,0.0,0.0,0.0,0.0,0.0,0.0030204559407694237,1.8869537791642445e-05,3.305949935107248e-05,0.0,0.0,0.0,0.0,0.0,0.0,0.0,0.0,0.0,0.00029682654923001816,-0.12816905319277735,-9.810751303706024,0.0,0.0,0.0,0.0,0.0,0.0,0.0,0.0,0.0
1710444587.4392958,463,1710444587,439180374,map,0.0007332712625602595,8.1629989486812e-06,4.820532376939198e-07,0.9999997311231582,0.0,0.0,0.0,0.0,0.0,0.0,0.0,0.0,0.0,0.003231324338190483,2.0481600800746016e-05,3.492611684902763e-05,0.0,0.0,0.0,0.0,0.0,0.0,0.0,0.0,0.0,0.00029792132500356885,-0.13395153701323118,-9.810761082592592,0.0,0.0,0.0,0.0,0.0,0.0,0.0,0.0,0.0
1710444587.4557374,464,1710444587,455610514,map,0.0007504076783480055,8.260768692720195e-06,6.920092599191218e-07,0.999999718409759,0.0,0.0,0.0,0.0,0.0,0.0,0.0,0.0,0.0,0.0034272837632128685,1.9583822926179845e-05,4.20044973499429e-05,0.0,0.0,0.0,0.0,0.0,0.0,0.0,0.0,0.0,0.0003174305680750022,-0.13669212954609086,-9.810274932231733,0.0,0.0,0.0,0.0,0.0,0.0,0.0,0.0,0.0
1710444587.4722767,465,1710444587,472152233,map,0.0007674396522391154,8.369451807778697e-06,9.106693712923319e-07,0.9999997054827082,0.0,0.0,0.0,0.0,0.0,0.0,0.0,0.0,0.0,0.003406395408311718,2.1767842877849395e-05,4.374346911673397e-05,0.0,0.0,0.0,0.0,0.0,0.0,0.0,0.0,0.0,0.00033978728260303703,-0.14405331283065587,-9.811670519043508,0.0,0.0,0.0,0.0,0.0,0.0,0.0,0.0,0.0
1710444587.4892259,466,1710444587,489143133,map,0.0007838122941797442,8.4480948028189e-06,1.1641176926122113e-06,0.9999996927827338,0.0,0.0,0.0,0.0,0.0,0.0,0.0,0.0,0.0,0.0032745289592416627,1.5765365052294822e-05,5.070472879114813e-05,0.0,0.0,0.0,0.0,0.0,0.0,0.0,0.0,0.0,0.0002672313443500664,-0.14643938525509798,-9.810725226675173,0.0,0.0,0.0,0.0,0.0,0.0,0.0,0.0,0.0
1710444587.505418,467,1710444587,505314350,map,0.0007994696325309022,8.555645578689447e-06,1.450788513614736e-06,0.9999996803864504,0.0,0.0,0.0,0.0,0.0,0.0,0.0,0.0,0.0,0.0031314681860870907,2.155236118458881e-05,5.734340703864438e-05,0.0,0.0,0.0,0.0,0.0,0.0,0.0,0.0,0.0,0.000532595553009496,-0.1500779739329372,-9.811090305107081,0.0,0.0,0.0,0.0,0.0,0.0,0.0,0.0,0.0
1710444587.5226514,468,1710444587,522439480,map,0.0008137263573386295,8.665846737699956e-06,1.74673668927779e-06,0.9999996688855789,0.0,0.0,0.0,0.0,0.0,0.0,0.0,0.0,0.0,0.0028513454082668517,2.2084271999141642e-05,5.9196079309341e-05,0.0,0.0,0.0,0.0,0.0,0.0,0.0,0.0,0.0,0.00022087067835877832,-0.15599666549244842,-9.811613708369155,0.0,0.0,0.0,0.0,0.0,0.0,0.0,0.0,0.0
1710444587.539534,469,1710444587,539409399,map,0.0008263961106493402,8.744330196418722e-06,2.085713889086981e-06,0.9999996584942692,0.0,0.0,0.0,0.0,0.0,0.0,0.0,0.0,0.0,0.002533950948893096,1.574830441454591e-05,6.78044076385399e-05,0.0,0.0,0.0,0.0,0.0,0.0,0.0,0.0,0.0,0.00033129420121303304,-0.15861358369108003,-9.810235816685458,0.0,0.0,0.0,0.0,0.0,0.0,0.0,0.0,0.0
1710444587.5562267,470,1710444587,556098223,map,0.0008378885741337584,8.851630867698778e-06,2.4661089968345316e-06,0.9999996489290905,0.0,0.0,0.0,0.0,0.0,0.0,0.0,0.0,0.0,0.002298492864224885,2.1519095425776617e-05,7.608111646333602e-05,0.0,0.0,0.0,0.0,0.0,0.0,0.0,0.0,0.0,0.0005620051072922663,-0.1604527765225741,-9.810660965420576,0.0,0.0,0.0,0.0,0.0,0.0,0.0,0.0,0.0
1710444587.5722716,471,1710444587,572147131,map,0.0008478239163235718,8.941956350205546e-06,2.868974428443223e-06,0.9999996405531442,0.0,0.0,0.0,0.0,0.0,0.0,0.0,0.0,0.0,0.0019870684680592834,1.8128516472867383e-05,8.057533431540557e-05,0.0,0.0,0.0,0.0,0.0,0.0,0.0,0.0,0.0,0.0002738802832112707,-0.1647351790751327,-9.810515213444573,0.0,0.0,0.0,0.0,0.0,0.0,0.0,0.0,0.0
1710444587.5890763,472,1710444587,588984489,map,0.000856533689719667,9.028730801170507e-06,3.3080697747030195e-06,0.9999996331287212,0.0,0.0,0.0,0.0,0.0,0.0,0.0,0.0,0.0,0.001741954568886909,1.7425119607156045e-05,8.781975277200228e-05,0.0,0.0,0.0,0.0,0.0,0.0,0.0,0.0,0.0,0.0004668765987438169,-0.16327937712312432,-9.809216949837221,0.0,0.0,0.0,0.0,0.0,0.0,0.0,0.0,0.0
1710444587.6055954,473,1710444587,605503321,map,0.0008646734433724235,9.12030776339222e-06,3.785340986762275e-06,0.9999996261210939,0.0,0.0,0.0,0.0,0.0,0.0,0.0,0.0,0.0,0.00162795052375466,1.8392549743804762e-05,9.545307289937102e-05,0.0,0.0,0.0,0.0,0.0,0.0,0.0,0.0,0.0,0.0004202040897714702,-0.16413901169289988,-9.80960158604227,0.0,0.0,0.0,0.0,0.0,0.0,0.0,0.0,0.0
1710444587.622221,474,1710444587,622097969,map,0.0008724108657923844,9.210397703058752e-06,4.30183824652186e-06,0.9999996193978996,0.0,0.0,0.0,0.0,0.0,0.0,0.0,0.0,0.0,0.0015474841848413727,1.8102255255853032e-05,0.00010329781221776009,0.0,0.0,0.0,0.0,0.0,0.0,0.0,0.0,0.0,0.0004562452527789427,-0.16486636322044346,-9.809620212492877,0.0,0.0,0.0,0.0,0.0,0.0,0.0,0.0,0.0
1710444587.639337,475,1710444587,639239311,map,0.0008802228462710155,9.300365412899157e-06,4.859726211381164e-06,0.9999996125487386,0.0,0.0,0.0,0.0,0.0,0.0,0.0,0.0,0.0,0.0015623957357896114,1.808503969633603e-05,0.00011157610764934169,0.0,0.0,0.0,0.0,0.0,0.0,0.0,0.0,0.0,0.0004296788001151566,-0.1648381988993514,-9.809630457040711,0.0,0.0,0.0,0.0,0.0,0.0,0.0,0.0,0.0
1710444587.6556437,476,1710444587,655520439,map,0.000888783504433081,9.39449931080828e-06,5.462201109333426e-06,0.9999996049728169,0.0,0.0,0.0,0.0,0.0,0.0,0.0,0.0,0.0,0.001712131262210201,1.8925559831589072e-05,0.0001204941299454182,0.0,0.0,0.0,0.0,0.0,0.0,0.0,0.0,0.0,0.0004564786589511264,-0.16497072773251487,-9.809575509011419,0.0,0.0,0.0,0.0,0.0,0.0,0.0,0.0,0.0
1710444587.672541,477,1710444587,672342539,map,0.000898115456409356,9.490271976179471e-06,6.110625139333174e-06,0.9999995966305297,0.0,0.0,0.0,0.0,0.0,0.0,0.0,0.0,0.0,0.0018663900147178744,1.926081851432306e-05,0.00012968509371928628,0.0,0.0,0.0,0.0,0.0,0.0,0.0,0.0,0.0,0.00047103885841621985,-0.16555196121245389,-9.809179696936008,0.0,0.0,0.0,0.0,0.0,0.0,0.0,0.0,0.0
1710444587.6892166,478,1710444587,689134598,map,0.0009084717021646056,9.588007447591897e-06,6.807442313801779e-06,0.9999995872703625,0.0,0.0,0.0,0.0,0.0,0.0,0.0,0.0,0.0,0.002071248780058696,1.9661055293664243e-05,0.0001393652876811332,0.0,0.0,0.0,0.0,0.0,0.0,0.0,0.0,0.0,0.00045930589415157463,-0.16571960927236354,-9.80925001178705,0.0,0.0,0.0,0.0,0.0,0.0,0.0,0.0,0.0
1710444587.7056022,479,1710444587,705506086,map,0.0009220503747077751,9.693815218957557e-06,7.562240106611138e-06,0.9999995748358841,0.0,0.0,0.0,0.0,0.0,0.0,0.0,0.0,0.0,0.0027157343277185654,2.1282274584850477e-05,0.00015096603802416486,0.0,0.0,0.0,0.0,0.0,0.0,0.0,0.0,0.0,0.0005329815837540716,-0.16669930964262245,-9.809134527793283,0.0,0.0,0.0,0.0,0.0,0.0,0.0,0.0,0.0
1710444587.7226887,480,1710444587,722497463,map,0.0009400882154694994,9.813834709595923e-06,8.375560647191817e-06,0.9999995580337453,0.0,0.0,0.0,0.0,0.0,0.0,0.0,0.0,0.0,0.003607568302277731,2.4129558038984653e-05,0.00016267646744669138,0.0,0.0,0.0,0.0,0.0,0.0,0.0,0.0,0.0,0.0005149603876308982,-0.17069380836409123,-9.809689130360125,0.0,0.0,0.0,0.0,0.0,0.0,0.0,0.0,0.0
1710444587.7391105,481,1710444587,739023447,map,0.0009643733614619254,9.94990034851023e-06,9.266683372685063e-06,0.9999995348994658,0.0,0.0,0.0,0.0,0.0,0.0,0.0,0.0,0.0,0.004857029856463167,2.7344356351671317e-05,0.0001782459244137368,0.0,0.0,0.0,0.0,0.0,0.0,0.0,0.0,0.0,0.0005381861669377627,-0.17684160844930724,-9.810179937333634,0.0,0.0,0.0,0.0,0.0,0.0,0.0,0.0,0.0
1710444587.7557986,482,1710444587,755663633,map,0.000996362457759923,1.0112461899922294e-05,1.0247773798215064e-05,0.9999995035271638,0.0,0.0,0.0,0.0,0.0,0.0,0.0,0.0,0.0,0.006397820652881727,3.264857637634026e-05,0.00019624931134819095,0.0,0.0,0.0,0.0,0.0,0.0,0.0,0.0,0.0,0.0006516636307469694,-0.18704652232525623,-9.810245129910761,0.0,0.0,0.0,0.0,0.0,0.0,0.0,0.0,0.0
1710444587.7725658,483,1710444587,772301435,map,0.0010352358843902167,1.0291082325905514e-05,1.1312748708239994e-05,0.999999464026246,0.0,0.0,0.0,0.0,0.0,0.0,0.0,0.0,0.0,0.007774687513533538,3.5864975829806873e-05,0.00021303659025598336,0.0,0.0,0.0,0.0,0.0,0.0,0.0,0.0,0.0,0.0007089057466288125,-0.20321732735026515,-9.81097714941964,0.0,0.0,0.0,0.0,0.0,0.0,0.0,0.0,0.0
1710444587.7893093,484,1710444587,789215803,map,0.0010801479355985876,1.0480669647823834e-05,1.25025427879985e-05,0.9999994165069694,0.0,0.0,0.0,0.0,0.0,0.0,0.0,0.0,0.0,0.008982413203884555,3.807295919272342e-05,0.00023801027143510424,0.0,0.0,0.0,0.0,0.0,0.0,0.0,0.0,0.0,0.0007806349400262851,-0.21896994673126163,-9.81147773527972,0.0,0.0,0.0,0.0,0.0,0.0,0.0,0.0,0.0
1710444587.8056874,485,1710444587,805574656,map,0.0011300668985770748,1.0631965683568523e-05,1.3792767423126384e-05,0.999999361322559,0.0,0.0,0.0,0.0,0.0,0.0,0.0,0.0,0.0,0.009983796330410539,3.0426093961188324e-05,0.00025811534834119243,0.0,0.0,0.0,0.0,0.0,0.0,0.0,0.0,0.0,0.0010210938880158144,-0.23296020466103642,-9.81129286775744,0.0,0.0,0.0,0.0,0.0,0.0,0.0,0.0,0.0
1710444587.8225842,486,1710444587,822473288,map,0.0011821911636205114,1.0800178553185061e-05,1.5221032544841847e-05,0.9999993010376204,0.0,0.0,0.0,0.0,0.0,0.0,0.0,0.0,0.0,0.010424857359134414,3.383659328936277e-05,0.00028572406320240555,0.0,0.0,0.0,0.0,0.0,0.0,0.0,0.0,0.0,0.0013435635325629283,-0.24652253444001612,-9.810884482827868,0.0,0.0,0.0,0.0,0.0,0.0,0.0,0.0,0.0
1710444587.8398035,487,1710444587,839696169,map,0.0012347624594205627,1.0982767770453712e-05,1.6791494388482104e-05,0.999999237479256,0.0,0.0,0.0,0.0,0.0,0.0,0.0,0.0,0.0,0.010514263949287526,3.674575045796104e-05,0.0003141607961401937,0.0,0.0,0.0,0.0,0.0,0.0,0.0,0.0,0.0,0.0011828307726571854,-0.26241420645936203,-9.813046548082145,0.0,0.0,0.0,0.0,0.0,0.0,0.0,0.0,0.0
1710444587.8558218,488,1710444587,855635881,map,0.0012866855517592534,1.1169328728299316e-05,1.8518472047236418e-05,0.9999991719859589,0.0,0.0,0.0,0.0,0.0,0.0,0.0,0.0,0.0,0.010384623495878207,3.758235264053563e-05,0.00034546151755820986,0.0,0.0,0.0,0.0,0.0,0.0,0.0,0.0,0.0,0.0012304456033609393,-0.28115406377492963,-9.81347402512359,0.0,0.0,0.0,0.0,0.0,0.0,0.0,0.0,0.0
1710444587.8728707,489,1710444587,872751236,map,0.0013353341153544932,1.1353021156508396e-05,2.041261667508732e-05,0.9999991081682195,0.0,0.0,0.0,0.0,0.0,0.0,0.0,0.0,0.0,0.009729717468097006,3.706428450592607e-05,0.000378888449060545,0.0,0.0,0.0,0.0,0.0,0.0,0.0,0.0,0.0,0.0013865387894287761,-0.2997156046582425,-9.813092182886134,0.0,0.0,0.0,0.0,0.0,0.0,0.0,0.0,0.0
1710444587.8889334,490,1710444587,888844967,map,0.0013796799729244374,1.1539052844887353e-05,2.2482708584437242e-05,0.9999990479218219,0.0,0.0,0.0,0.0,0.0,0.0,0.0,0.0,0.0,0.008869175678201505,3.7596613389587445e-05,0.00041406760074499244,0.0,0.0,0.0,0.0,0.0,0.0,0.0,0.0,0.0,0.0015528175909190888,-0.3189144329962916,-9.81354853092602,0.0,0.0,0.0,0.0,0.0,0.0,0.0,0.0,0.0
1710444587.905681,491,1710444587,905536890,map,0.0014197976314240341,1.1723656673584856e-05,2.473592736027515e-05,0.9999989917121794,0.0,0.0,0.0,0.0,0.0,0.0,0.0,0.0,0.0,0.008023535119169516,3.7380294161789096e-05,0.00045068372473625707,0.0,0.0,0.0,0.0,0.0,0.0,0.0,0.0,0.0,0.001572730635408075,-0.335352140142795,-9.81250870932085,0.0,0.0,0.0,0.0,0.0,0.0,0.0,0.0,0.0
1710444587.922249,492,1710444587,921962500,map,0.0014545397049675456,1.1896896440385096e-05,2.7196725767264878e-05,0.9999989417159644,0.0,0.0,0.0,0.0,0.0,0.0,0.0,0.0,0.0,0.006948416901553087,3.5192027065577445e-05,0.0004921904778994044,0.0,0.0,0.0,0.0,0.0,0.0,0.0,0.0,0.0,0.0016901576081938484,-0.348519766520352,-9.81148844548882,0.0,0.0,0.0,0.0,0.0,0.0,0.0,0.0,0.0
1710444587.938968,493,1710444587,938821554,map,0.0014852621976775557,1.2074553684109413e-05,2.987418784769769e-05,0.9999988964783623,0.0,0.0,0.0,0.0,0.0,0.0,0.0,0.0,0.0,0.006144499699165024,3.615975581519331e-05,0.0005355124033416096,0.0,0.0,0.0,0.0,0.0,0.0,0.0,0.0,0.0,0.0019081668742482118,-0.3562148553074034,-9.81090450626227,0.0,0.0,0.0,0.0,0.0,0.0,0.0,0.0,0.0
1710444587.9554183,494,1710444587,955307722,map,0.0015159325358664732,1.2264995690481728e-05,3.279760829169427e-05,0.9999988503605559,0.0,0.0,0.0,0.0,0.0,0.0,0.0,0.0,0.0,0.006134068533755525,3.879156246778809e-05,0.0005847000245259211,0.0,0.0,0.0,0.0,0.0,0.0,0.0,0.0,0.0,0.001813910954770394,-0.365860526374763,-9.810205548703221,0.0,0.0,0.0,0.0,0.0,0.0,0.0,0.0,0.0
1710444587.9720833,495,1710444587,971906185,map,0.0015479922189766447,1.2452692232965384e-05,3.599958629956974e-05,0.9999988011338065,0.0,0.0,0.0,0.0,0.0,0.0,0.0,0.0,0.0,0.00641193743068191,3.83204179824962e-05,0.0006404156953605046,0.0,0.0,0.0,0.0,0.0,0.0,0.0,0.0,0.0,0.0020929911386889494,-0.37752204324014094,-9.809247683480725,0.0,0.0,0.0,0.0,0.0,0.0,0.0,0.0,0.0
1710444587.9903383,496,1710444587,990154505,map,0.00158438840329041,1.266762662471215e-05,3.950681130084231e-05,0.9999987439952766,0.0,0.0,0.0,0.0,0.0,0.0,0.0,0.0,0.0,0.007279238486456648,4.3836281766412724e-05,0.000701467078443964,0.0,0.0,0.0,0.0,0.0,0.0,0.0,0.0,0.0,0.00238924512550426,-0.3841630477267872,-9.808720089267265,0.0,0.0,0.0,0.0,0.0,0.0,0.0,0.0,0.0
1710444588.0064204,497,1710444588,6174326,map,0.0016284324945052859,1.2905622155961142e-05,4.3361464210392376e-05,0.9999986730795393,0.0,0.0,0.0,0.0,0.0,0.0,0.0,0.0,0.0,0.008808821581229741,4.850662776376224e-05,0.0007709642096156244,0.0,0.0,0.0,0.0,0.0,0.0,0.0,0.0,0.0,0.002457744710474563,-0.3958932187059623,-9.808135218718187,0.0,0.0,0.0,0.0,0.0,0.0,0.0,0.0,0.0
1710444588.023085,498,1710444588,22942543,map,0.00168239347707207,1.3179263925184223e-05,4.760894351069631e-05,0.9999985835549389,0.0,0.0,0.0,0.0,0.0,0.0,0.0,0.0,0.0,0.010792202528534262,5.568973578217291e-05,0.0008495426639764616,0.0,0.0,0.0,0.0,0.0,0.0,0.0,0.0,0.0,0.002863383221972685,-0.41055280467780025,-9.807758498754648,0.0,0.0,0.0,0.0,0.0,0.0,0.0,0.0,0.0
1710444588.039892,499,1710444588,39775133,map,0.0017445647728716615,1.3475469382592392e-05,5.228176173641456e-05,0.9999984767882312,0.0,0.0,0.0,0.0,0.0,0.0,0.0,0.0,0.0,0.01243426770219308,6.027971775951415e-05,0.0009346237996919188,0.0,0.0,0.0,0.0,0.0,0.0,0.0,0.0,0.0,0.0031860486920884733,-0.43296336788345896,-9.807919617552402,0.0,0.0,0.0,0.0,0.0,0.0,0.0,0.0,0.0
1710444588.0566194,500,1710444588,56444407,map,0.0018142798522149553,1.3810242516878917e-05,5.7405774997479904e-05,0.9999983524498789,0.0,0.0,0.0,0.0,0.0,0.0,0.0,0.0,0.0,0.013943027367150182,6.808517817741635e-05,0.0010248687292748414,0.0,0.0,0.0,0.0,0.0,0.0,0.0,0.0,0.0,0.0035397011141800696,-0.4501256557820286,-9.806980378780514,0.0,0.0,0.0,0.0,0.0,0.0,0.0,0.0,0.0
1710444588.0735989,501,1710444588,73448420,map,0.0018914007727742867,1.4185600674300527e-05,6.302232572707481e-05,0.9999982092134325,0.0,0.0,0.0,0.0,0.0,0.0,0.0,0.0,0.0,0.01542419905721118,7.631110162767427e-05,0.0011233808686624154,0.0,0.0,0.0,0.0,0.0,0.0,0.0,0.0,0.0,0.003662192480074427,-0.47267659766924897,-9.80677176253371,0.0,0.0,0.0,0.0,0.0,0.0,0.0,0.0,0.0
1710444588.089838,502,1710444588,89755297,map,0.0019731523133517926,1.4578128903405728e-05,6.917153758484858e-05,0.9999980508344628,0.0,0.0,0.0,0.0,0.0,0.0,0.0,0.0,0.0,0.016350325775922537,7.990219309996886e-05,0.0012299190907378113,0.0,0.0,0.0,0.0,0.0,0.0,0.0,0.0,0.0,0.004003181126961744,-0.4988544441838035,-9.807595051650566,0.0,0.0,0.0,0.0,0.0,0.0,0.0,0.0,0.0
1710444588.1065743,503,1710444588,106397629,map,0.0020595342372519416,1.5022975605686864e-05,7.590773187071743e-05,0.9999978761632706,0.0,0.0,0.0,0.0,0.0,0.0,0.0,0.0,0.0,0.017276405961884303,9.054933314972813e-05,0.0013473071381434238,0.0,0.0,0.0,0.0,0.0,0.0,0.0,0.0,0.0,0.004435512198242405,-0.5229721288636061,-9.808028582288458,0.0,0.0,0.0,0.0,0.0,0.0,0.0,0.0,0.0
1710444588.1228564,504,1710444588,122661114,map,0.002149634085872487,1.548672133071546e-05,8.328854252213828e-05,0.9999976859455612,0.0,0.0,0.0,0.0,0.0,0.0,0.0,0.0,0.0,0.018019993995590924,9.455487990666096e-05,0.0014762330630955344,0.0,0.0,0.0,0.0,0.0,0.0,0.0,0.0,0.0,0.004651872337317963,-0.5588225929532645,-9.808431844944112,0.0,0.0,0.0,0.0,0.0,0.0,0.0,0.0,0.0
1710444588.139087,505,1710444588,138875246,map,0.0022386349588780154,1.597887047243731e-05,9.133214856031234e-05,0.9999974899551676,0.0,0.0,0.0,0.0,0.0,0.0,0.0,0.0,0.0,0.01780020017159244,0.00010054900203079731,0.0016087758853742672,0.0,0.0,0.0,0.0,0.0,0.0,0.0,0.0,0.0,0.00528285244659702,-0.5717245095568243,-9.808931033820395,0.0,0.0,0.0,0.0,0.0,0.0,0.0,0.0,0.0
1710444588.1557858,506,1710444588,155663967,map,0.0023232028771742966,1.7192006197382004e-05,9.999495903731083e-05,0.9999972962132622,0.0,0.0,0.0,0.0,0.0,0.0,0.0,0.0,0.0,0.016913620322005416,0.00024510747075289846,0.00173226766986171,0.0,0.0,0.0,0.0,0.0,0.0,0.0,0.0,0.0,0.005535185799481457,-0.5794209516719276,-9.808489586940995,0.0,0.0,0.0,0.0,0.0,0.0,0.0,0.0,0.0
1710444588.1725194,507,1710444588,172274351,map,0.0023986215245681056,1.785727173459691e-05,0.00010925100259607528,0.9999971171759038,0.0,0.0,0.0,0.0,0.0,0.0,0.0,0.0,0.0,0.01508375211854751,0.00013598541141552776,0.0018511472466949716,0.0,0.0,0.0,0.0,0.0,0.0,0.0,0.0,0.0,0.0027881059833307093,-0.5741678123874046,-9.808481670699488,0.0,0.0,0.0,0.0,0.0,0.0,0.0,0.0,0.0
1710444588.1892939,508,1710444588,189194441,map,0.0024631544922066434,1.8732882361864028e-05,0.00011940999671730747,0.9999969591255162,0.0,0.0,0.0,0.0,0.0,0.0,0.0,0.0,0.0,0.012906613184993853,0.00017871674864307875,0.002031595316335084,0.0,0.0,0.0,0.0,0.0,0.0,0.0,0.0,0.0,0.010873617663615906,-0.5696812752366578,-9.807851631007685,0.0,0.0,0.0,0.0,0.0,0.0,0.0,0.0,0.0
1710444588.2056327,509,1710444588,205509186,map,0.0025172867927814066,1.9288322511797107e-05,0.00013041662711045786,0.9999968229382866,0.0,0.0,0.0,0.0,0.0,0.0,0.0,0.0,0.0,0.010826465047444592,0.0001153367797879545,0.0022012455807426425,0.0,0.0,0.0,0.0,0.0,0.0,0.0,0.0,0.0,0.004615135076941611,-0.5442708603150082,-9.806862100819156,0.0,0.0,0.0,0.0,0.0,0.0,0.0,0.0,0.0
1710444588.2234852,510,1710444588,223246098,map,0.002561178180590554,1.9911764906846226e-05,0.00014230616895049308,0.9999967098539891,0.0,0.0,0.0,0.0,0.0,0.0,0.0,0.0,0.0,0.008778275463662175,0.00012963392609667193,0.002377753516982492,0.0,0.0,0.0,0.0,0.0,0.0,0.0,0.0,0.0,0.008651116773493483,-0.4935664385120493,-9.806952439104602,0.0,0.0,0.0,0.0,0.0,0.0,0.0,0.0,0.0
1710444588.2400718,511,1710444588,239979267,map,0.002591125894781872,2.0479013963814373e-05,0.00015502194489927203,0.9999966308020263,0.0,0.0,0.0,0.0,0.0,0.0,0.0,0.0,0.0,0.005989527616858077,0.00011918703376089971,0.0025429742013468163,0.0,0.0,0.0,0.0,0.0,0.0,0.0,0.0,0.0,0.0068140676777530915,-0.41919166152013954,-9.806440211712895,0.0,0.0,0.0,0.0,0.0,0.0,0.0,0.0,0.0
1710444588.256373,512,1710444588,256238937,map,0.0025850276291805884,2.090695700876291e-05,0.0001684705228358483,0.9999966444007393,0.0,0.0,0.0,0.0,0.0,0.0,0.0,0.0,0.0,-0.0012196991199003105,9.273032798440732e-05,0.0026894599210036826,0.0,0.0,0.0,0.0,0.0,0.0,0.0,0.0,0.0,0.007775636504607209,-0.33251348816958454,-9.804503060849704,0.0,0.0,0.0,0.0,0.0,0.0,0.0,0.0,0.0
1710444588.27314,513,1710444588,273005724,map,0.0024842137010999315,2.0810422294815188e-05,0.00018274269982223776,0.9999968974223467,0.0,0.0,0.0,0.0,0.0,0.0,0.0,0.0,0.0,-0.020162911612024617,-8.82003589225965e-06,0.002854044785501081,0.0,0.0,0.0,0.0,0.0,0.0,0.0,0.0,0.0,0.008470624261581287,-0.2733611852126937,-9.799661580675522,0.0,0.0,0.0,0.0,0.0,0.0,0.0,0.0,0.0
1710444588.289987,514,1710444588,289862871,map,0.0022503771139078307,1.9963956442599777e-05,0.00019766074767705997,0.9999974481640013,0.0,0.0,0.0,0.0,0.0,0.0,0.0,0.0,0.0,-0.04676753713245657,-0.00015403416786907134,0.0029829915607422824,0.0,0.0,0.0,0.0,0.0,0.0,0.0,0.0,0.0,0.0059793106219549206,-0.308533431859496,-9.786162991920195,0.0,0.0,0.0,0.0,0.0,0.0,0.0,0.0,0.0
1710444588.3061297,515,1710444588,306028843,map,0.001889046358072231,1.7279290449867176e-05,0.00021377803342866568,0.9999981927504847,0.0,0.0,0.0,0.0,0.0,0.0,0.0,0.0,0.0,-0.07226646561718121,-0.0005165612330526539,0.0032229986336509116,0.0,0.0,0.0,0.0,0.0,0.0,0.0,0.0,0.0,0.0036539723536634008,-0.25373413768555875,-9.775807616704899,0.0,0.0,0.0,0.0,0.0,0.0,0.0,0.0,0.0
1710444588.322475,516,1710444588,322276354,map,0.0014276803777407128,1.360130163116381e-05,0.00023054231676069873,0.9999989541964451,0.0,0.0,0.0,0.0,0.0,0.0,0.0,0.0,0.0,-0.09227352354487262,-0.0007110860934149165,0.0033522854986718607,0.0,0.0,0.0,0.0,0.0,0.0,0.0,0.0,0.0,0.01808835036659183,-0.05097144215875906,-9.773778730572467,0.0,0.0,0.0,0.0,0.0,0.0,0.0,0.0,0.0
1710444588.339343,517,1710444588,339178801,map,0.0009294786797758108,9.343352184214257e-06,0.000248121043435528,0.9999995372089097,0.0,0.0,0.0,0.0,0.0,0.0,0.0,0.0,0.0,-0.09964063563798861,-0.0008253512780310651,0.0035151645800808795,0.0,0.0,0.0,0.0,0.0,0.0,0.0,0.0,0.0,0.011968350122483465,0.11317662764619289,-9.776454885863513,0.0,0.0,0.0,0.0,0.0,0.0,0.0,0.0,0.0
1710444588.35664,518,1710444588,356508255,map,0.00045748062202359785,4.869985191545141e-06,0.00026653917871797823,0.9999998598223052,0.0,0.0,0.0,0.0,0.0,0.0,0.0,0.0,0.0,-0.09439987174864158,-0.0008695657452758834,0.0036831488893946883,0.0,0.0,0.0,0.0,0.0,0.0,0.0,0.0,0.0,0.0069774400611642435,0.3190569253434397,-9.785851930195047,0.0,0.0,0.0,0.0,0.0,0.0,0.0,0.0,0.0
1710444588.372425,519,1710444588,372310162,map,5.646050409624702e-05,7.627041344258354e-07,0.0002859212328299023,0.9999999575303383,0.0,0.0,0.0,0.0,0.0,0.0,0.0,0.0,0.0,-0.08020424577474713,-0.0007998597447434973,0.0038760698295015874,0.0,0.0,0.0,0.0,0.0,0.0,0.0,0.0,0.0,0.006960976076215943,0.5291714372693158,-9.7970198843181,0.0,0.0,0.0,0.0,0.0,0.0,0.0,0.0,0.0
1710444588.3891723,520,1710444588,388948679,map,-0.00022049623119331253,-2.4066078227649904e-06,0.0003063882215754176,0.9999999287509365,0.0,0.0,0.0,0.0,0.0,0.0,0.0,0.0,0.0,-0.05539151679021967,-0.0006189273551804688,0.004093221502635947,0.0,0.0,0.0,0.0,0.0,0.0,0.0,0.0,0.0,0.005296736877319939,0.6518345598657033,-9.807639755132024,0.0,0.0,0.0,0.0,0.0,0.0,0.0,0.0,0.0
1710444588.4058514,521,1710444588,405661345,map,-0.00033495202970942965,-4.089156429165892e-06,0.00032814027812754935,0.9999998900571813,0.0,0.0,0.0,0.0,0.0,0.0,0.0,0.0,0.0,-0.022891245268098888,-0.0003309533111383468,0.004350356411621838,0.0,0.0,0.0,0.0,0.0,0.0,0.0,0.0,0.0,0.003926712947696927,0.7877066299104708,-9.820579550369123,0.0,0.0,0.0,0.0,0.0,0.0,0.0,0.0,0.0
1710444588.4228194,522,1710444588,422622204,map,-0.0002814121594790794,-4.403924401024411e-06,0.00035123486934040215,0.9999998987109291,0.0,0.0,0.0,0.0,0.0,0.0,0.0,0.0,0.0,0.010707973251397301,-6.776712118181085e-05,0.004618855929083354,0.0,0.0,0.0,0.0,0.0,0.0,0.0,0.0,0.0,0.003136504197936306,0.8557750436993994,-9.835646486265611,0.0,0.0,0.0,0.0,0.0,0.0,0.0,0.0,0.0
1710444588.4391937,523,1710444588,439070225,map,-5.083159458820474e-05,-3.327363273726081e-06,0.00037570528074648736,0.9999999281253072,0.0,0.0,0.0,0.0,0.0,0.0,0.0,0.0,0.0,0.04611620269729722,0.00019886583217564326,0.0048938914947363596,0.0,0.0,0.0,0.0,0.0,0.0,0.0,0.0,0.0,0.007022487757929047,0.7877455708337723,-9.845502206943358,0.0,0.0,0.0,0.0,0.0,0.0,0.0,0.0,0.0
1710444588.4557414,524,1710444588,455583572,map,0.00034970048467800584,-2.4448711516692066e-06,0.0004016744302700569,0.9999998581806129,0.0,0.0,0.0,0.0,0.0,0.0,0.0,0.0,0.0,0.08010649129771384,0.00014821813557785342,0.00519351826667854,0.0,0.0,0.0,0.0,0.0,0.0,0.0,0.0,0.0,0.006749590645549123,0.7178582259353534,-9.857804977569678,0.0,0.0,0.0,0.0,0.0,0.0,0.0,0.0,0.0
1710444588.472886,525,1710444588,472734213,map,0.0008835085213265601,2.7654279293859464e-07,0.00042934360088281757,0.9999995175382279,0.0,0.0,0.0,0.0,0.0,0.0,0.0,0.0,0.0,0.10676183927212371,0.00050628803498082,0.005533139876753148,0.0,0.0,0.0,0.0,0.0,0.0,0.0,0.0,0.0,0.014404977461221694,0.5664976510299554,-9.868004356261135,0.0,0.0,0.0,0.0,0.0,0.0,0.0,0.0,0.0
1710444588.489265,526,1710444588,489171028,map,0.0015280434497074683,6.27451179416264e-06,0.00045912545600593647,0.9999987271230208,0.0,0.0,0.0,0.0,0.0,0.0,0.0,0.0,0.0,0.12890755118748917,0.0011533486296025743,0.005954669680961877,0.0,0.0,0.0,0.0,0.0,0.0,0.0,0.0,0.0,0.009860799466450415,0.27405761073861445,-9.871855374924257,0.0,0.0,0.0,0.0,0.0,0.0,0.0,0.0,0.0
1710444588.5058582,527,1710444588,505730391,map,0.002233754992447774,1.3988420528910652e-05,0.000491090442674953,0.999997384483147,0.0,0.0,0.0,0.0,0.0,0.0,0.0,0.0,0.0,0.14114317154075573,0.001492258531072761,0.006390589128082118,0.0,0.0,0.0,0.0,0.0,0.0,0.0,0.0,0.0,0.006499124002029701,0.017168901743726817,-9.875572283143004,0.0,0.0,0.0,0.0,0.0,0.0,0.0,0.0,0.0
1710444588.5223463,528,1710444588,522243023,map,0.0029298032778721935,2.2188331465319386e-05,0.0005244410075085229,0.9999955703512194,0.0,0.0,0.0,0.0,0.0,0.0,0.0,0.0,0.0,0.13921077379811564,0.0015911591308573508,0.006667451790544972,0.0,0.0,0.0,0.0,0.0,0.0,0.0,0.0,0.0,0.013868297744288173,-0.2581190442651778,-9.872619525060434,0.0,0.0,0.0,0.0,0.0,0.0,0.0,0.0,0.0
1710444588.5392597,529,1710444588,539151907,map,0.003567267341017255,3.103799577745128e-05,0.0005592563745320887,0.9999934804150816,0.0,0.0,0.0,0.0,0.0,0.0,0.0,0.0,0.0,0.1274941948147332,0.0017279092983828385,0.00695980499191186,0.0,0.0,0.0,0.0,0.0,0.0,0.0,0.0,0.0,0.02102802718748745,-0.6626526786873241,-9.858773553001274,0.0,0.0,0.0,0.0,0.0,0.0,0.0,0.0,0.0
1710444588.5562437,530,1710444588,556119204,map,0.004104864252560046,4.149772253137689e-05,0.0005981769064759061,0.9999913952388769,0.0,0.0,0.0,0.0,0.0,0.0,0.0,0.0,0.0,0.10752102232938865,0.002063764104114061,0.00777905516348942,0.0,0.0,0.0,0.0,0.0,0.0,0.0,0.0,0.0,0.0189002859205643,-0.8980128269305879,-9.845533871909392,0.0,0.0,0.0,0.0,0.0,0.0,0.0,0.0,0.0
1710444588.5726023,531,1710444588,572474957,map,0.004502874257661137,4.9492726895666434e-05,0.0006403211709435568,0.9999896557778424,0.0,0.0,0.0,0.0,0.0,0.0,0.0,0.0,0.0,0.07960328604476069,0.0015893382227146983,0.008425096173965864,0.0,0.0,0.0,0.0,0.0,0.0,0.0,0.0,0.0,0.03407602295775521,-1.0626420257763882,-9.828957262191157,0.0,0.0,0.0,0.0,0.0,0.0,0.0,0.0,0.0
1710444588.5894167,532,1710444588,589293003,map,0.004766464361796289,4.727030809596874e-05,0.0006858462768952957,0.9999884040317119,0.0,0.0,0.0,0.0,0.0,0.0,0.0,0.0,0.0,0.052717888017578846,-0.00043482323604250036,0.009109812857438873,0.0,0.0,0.0,0.0,0.0,0.0,0.0,0.0,0.0,0.051166064920747364,-1.3154625005893525,-9.808166883684219,0.0,0.0,0.0,0.0,0.0,0.0,0.0,0.0,0.0
1710444588.605559,533,1710444588,605422497,map,0.004901573328849574,5.0566183770114255e-05,0.000734362907648895,0.9999877162910966,0.0,0.0,0.0,0.0,0.0,0.0,0.0,0.0,0.0,0.027022095830314827,0.000688202516078395,0.009701350470875912,0.0,0.0,0.0,0.0,0.0,0.0,0.0,0.0,0.0,0.10727323333209157,-1.414915530501686,-9.79240983779272,0.0,0.0,0.0,0.0,0.0,0.0,0.0,0.0,0.0
1710444588.6226916,534,1710444588,622504234,map,0.004888605423406763,5.4162484213113535e-05,0.0007847841635517484,0.99998774128349,0.0,0.0,0.0,0.0,0.0,0.0,0.0,0.0,0.0,-0.002593594290430749,0.0007704536047495037,0.010080476980713418,0.0,0.0,0.0,0.0,0.0,0.0,0.0,0.0,0.0,-0.004611900885514013,-1.4611469538913857,-9.77463508163915,0.0,0.0,0.0,0.0,0.0,0.0,0.0,0.0,0.0
1710444588.6393654,535,1710444588,639275312,map,0.0047405140194453025,5.5740305511901596e-05,0.0008386454126454566,0.9999884104797024,0.0,0.0,0.0,0.0,0.0,0.0,0.0,0.0,0.0,-0.02961892894272248,0.0003898635637973988,0.010768923721071366,0.0,0.0,0.0,0.0,0.0,0.0,0.0,0.0,0.0,0.03997902755339534,-1.5371094038764554,-9.751039559670708,0.0,0.0,0.0,0.0,0.0,0.0,0.0,0.0,0.0
1710444588.6559885,536,1710444588,655863762,map,0.004475582977921322,5.5191740064115866e-05,0.0008965393656261839,0.9999895811097461,0.0,0.0,0.0,0.0,0.0,0.0,0.0,0.0,0.0,-0.052987441442629804,-1.3465728414736578e-05,0.011576023528975543,0.0,0.0,0.0,0.0,0.0,0.0,0.0,0.0,0.0,0.05913165788288852,-1.5179707970451028,-9.732987269403086,0.0,0.0,0.0,0.0,0.0,0.0,0.0,0.0,0.0
1710444588.672767,537,1710444588,672636747,map,0.004138406515347182,5.832175367001066e-05,0.0009580178648185176,0.9999909761552139,0.0,0.0,0.0,0.0,0.0,0.0,0.0,0.0,0.0,-0.06743600273798796,0.0007373260414472641,0.012289047308014212,0.0,0.0,0.0,0.0,0.0,0.0,0.0,0.0,0.0,0.06081323915540397,-1.4898403462162404,-9.718616031436792,0.0,0.0,0.0,0.0,0.0,0.0,0.0,0.0,0.0
1710444588.689631,538,1710444588,689534426,map,0.003779385321825279,5.896138593259956e-05,0.0010231420389454889,0.9999923329458643,0.0,0.0,0.0,0.0,0.0,0.0,0.0,0.0,0.0,-0.07180536852416397,0.0002459268250658028,0.013019829307248442,0.0,0.0,0.0,0.0,0.0,0.0,0.0,0.0,0.0,0.024371848191735445,-1.3772563289186706,-9.71489679491172,0.0,0.0,0.0,0.0,0.0,0.0,0.0,0.0,0.0
1710444588.7058651,539,1710444588,705734491,map,0.0034571514800997645,5.4289014031666564e-05,0.0010972802231020594,0.9999934205445846,0.0,0.0,0.0,0.0,0.0,0.0,0.0,0.0,0.0,-0.06444886738212052,-0.0008172803770444071,0.014826769880954148,0.0,0.0,0.0,0.0,0.0,0.0,0.0,0.0,0.0,0.07532258365822908,-1.1926310050658124,-9.715393189820412,0.0,0.0,0.0,0.0,0.0,0.0,0.0,0.0,0.0
1710444588.7229164,540,1710444588,722664118,map,0.0032046290480470816,5.4780699600736745e-05,0.0011789623769318065,0.9999941686827244,0.0,0.0,0.0,0.0,0.0,0.0,0.0,0.0,0.0,-0.05050546792567631,0.00020609887906275262,0.016333129877171507,0.0,0.0,0.0,0.0,0.0,0.0,0.0,0.0,0.0,0.10266765879194661,-1.0788724827370637,-9.72680747875275,0.0,0.0,0.0,0.0,0.0,0.0,0.0,0.0,0.0
1710444588.7395203,541,1710444588,739248991,map,0.00302049534479332,5.472699500055147e-05,0.0012688866825728618,0.9999946317552985,0.0,0.0,0.0,0.0,0.0,0.0,0.0,0.0,0.0,-0.036827828762921934,8.699490566791195e-05,0.017982680438068954,0.0,0.0,0.0,0.0,0.0,0.0,0.0,0.0,0.0,0.029385618259189387,-0.9476832333422779,-9.736525363696,0.0,0.0,0.0,0.0,0.0,0.0,0.0,0.0,0.0
1710444588.7560651,542,1710444588,755948305,map,0.0028656425502393734,5.157427292034129e-05,0.0013671767650950616,0.9999949581175706,0.0,0.0,0.0,0.0,0.0,0.0,0.0,0.0,0.0,-0.030972413418940144,-0.0005349138067580395,0.019657955212486016,0.0,0.0,0.0,0.0,0.0,0.0,0.0,0.0,0.0,0.06682944673220752,-0.7414293588950324,-9.749724066596546,0.0,0.0,0.0,0.0,0.0,0.0,0.0,0.0,0.0
1710444588.7730362,543,1710444588,772922039,map,0.002704084299605438,5.420917330207667e-05,0.0014761484673099074,0.9999952529763172,0.0,0.0,0.0,0.0,0.0,0.0,0.0,0.0,0.0,-0.032312128743143056,0.0006300843363793988,0.021791075471715778,0.0,0.0,0.0,0.0,0.0,0.0,0.0,0.0,0.0,0.058867224954126905,-0.43441324061241443,-9.758889677279281,0.0,0.0,0.0,0.0,0.0,0.0,0.0,0.0,0.0
1710444588.7906122,544,1710444588,790384531,map,0.002516679534274764,4.914528241975521e-05,0.001596917674572343,0.9999955568715312,0.0,0.0,0.0,0.0,0.0,0.0,0.0,0.0,0.0,-0.03748363606804957,-0.0008966621427237558,0.0241541763332142,0.0,0.0,0.0,0.0,0.0,0.0,0.0,0.0,0.0,0.00889977357948576,-0.37073697298058716,-9.772100953033988,0.0,0.0,0.0,0.0,0.0,0.0,0.0,0.0,0.0
1710444588.8061762,545,1710444588,806096554,map,0.0023038462453885177,4.470539841872101e-05,0.0017258457860370702,0.9999958558665271,0.0,0.0,0.0,0.0,0.0,0.0,0.0,0.0,0.0,-0.04256920702495418,-0.0007605945399248838,0.025785393798831244,0.0,0.0,0.0,0.0,0.0,0.0,0.0,0.0,0.0,0.02876231928704932,-0.2991818040532321,-9.790984448659973,0.0,0.0,0.0,0.0,0.0,0.0,0.0,0.0,0.0
1710444588.8228977,546,1710444588,822705984,map,0.002078250137494099,4.055331543486202e-05,0.0018610090097427932,0.9999961079310561,0.0,0.0,0.0,0.0,0.0,0.0,0.0,0.0,0.0,-0.04512169909222581,-0.0006963662483257879,0.02703218545302659,0.0,0.0,0.0,0.0,0.0,0.0,0.0,0.0,0.0,0.02939717611731055,-0.1599101157342867,-9.813106152724089,0.0,0.0,0.0,0.0,0.0,0.0,0.0,0.0,0.0
1710444588.8390791,547,1710444588,838933229,map,0.001863542971360416,4.3149314198351645e-05,0.0020015894261481535,0.9999962594857541,0.0,0.0,0.0,0.0,0.0,0.0,0.0,0.0,0.0,-0.04294159538866417,0.000651507035944297,0.028113237622450073,0.0,0.0,0.0,0.0,0.0,0.0,0.0,0.0,0.0,0.057648813812509934,0.0035249102583430492,-9.835841132674462,0.0,0.0,0.0,0.0,0.0,0.0,0.0,0.0,0.0
1710444588.855928,548,1710444588,855805159,map,0.0016808361359222017,4.458187830730546e-05,0.0021490052572494377,0.999996277282443,0.0,0.0,0.0,0.0,0.0,0.0,0.0,0.0,0.0,-0.03654199665436532,0.00040920909350487355,0.029481013515326115,0.0,0.0,0.0,0.0,0.0,0.0,0.0,0.0,0.0,0.017464060045273917,0.07605645444348531,-9.857940019336585,0.0,0.0,0.0,0.0,0.0,0.0,0.0,0.0,0.0
1710444588.8725739,549,1710444588,872433662,map,0.001543034002595379,4.263288800445626e-05,0.002304488761088697,0.9999961532726283,0.0,0.0,0.0,0.0,0.0,0.0,0.0,0.0,0.0,-0.02756246288913012,-0.0002825849650080177,0.031096026271166307,0.0,0.0,0.0,0.0,0.0,0.0,0.0,0.0,0.0,0.05627336707782859,0.1429277986387557,-9.874805339039236,0.0,0.0,0.0,0.0,0.0,0.0,0.0,0.0,0.0
1710444588.8896637,550,1710444588,889554501,map,0.0014449620008237778,4.4990291175342106e-05,0.002466065091391088,0.9999959142834809,0.0,0.0,0.0,0.0,0.0,0.0,0.0,0.0,0.0,-0.019614633632240065,0.0005633764766459229,0.032313743721071334,0.0,0.0,0.0,0.0,0.0,0.0,0.0,0.0,0.0,0.08282698824991108,0.2511067458601258,-9.885706469257334,0.0,0.0,0.0,0.0,0.0,0.0,0.0,0.0,0.0
1710444588.906295,551,1710444588,906185389,map,0.001358781115868382,4.959269813480177e-05,0.0026336239841860697,0.9999956076299302,0.0,0.0,0.0,0.0,0.0,0.0,0.0,0.0,0.0,-0.017235424926146416,0.0010085214132408043,0.03350977455675191,0.0,0.0,0.0,0.0,0.0,0.0,0.0,0.0,0.0,0.027477580774767214,0.37315645068909137,-9.887883435672098,0.0,0.0,0.0,0.0,0.0,0.0,0.0,0.0,0.0
1710444588.9226017,552,1710444588,922359228,map,0.0012750552004720096,4.5324438832064635e-05,0.002808364772133134,0.9999952426223025,0.0,0.0,0.0,0.0,0.0,0.0,0.0,0.0,0.0,-0.01674885830695445,-0.0007649838268472832,0.034948462067592515,0.0,0.0,0.0,0.0,0.0,0.0,0.0,0.0,0.0,0.03287112875417567,0.5419786572890248,-9.880871042679601,0.0,0.0,0.0,0.0,0.0,0.0,0.0,0.0,0.0
1710444588.939461,553,1710444588,939306498,map,0.0011927038505013458,4.3748696314490756e-05,0.0029890369808961066,0.9999948205873386,0.0,0.0,0.0,0.0,0.0,0.0,0.0,0.0,0.0,-0.016472566334108114,-0.0002257913594693556,0.03613414394137504,0.0,0.0,0.0,0.0,0.0,0.0,0.0,0.0,0.0,0.10016615376018562,0.5240897486418699,-9.871826969587081,0.0,0.0,0.0,0.0,0.0,0.0,0.0,0.0,0.0
1710444588.9555707,554,1710444588,955462694,map,0.001106497040514821,4.031285572270692e-05,0.003175516782339321,0.9999943450501798,0.0,0.0,0.0,0.0,0.0,0.0,0.0,0.0,0.0,-0.017244734367925535,-0.0005943581106088973,0.0372960658052827,0.0,0.0,0.0,0.0,0.0,0.0,0.0,0.0,0.0,0.03335972201768698,0.5327553773689789,-9.86125226791588,0.0,0.0,0.0,0.0,0.0,0.0,0.0,0.0,0.0
1710444588.9728875,555,1710444588,972759962,map,0.0010131523761685963,3.7392145748213375e-05,0.003367683400558913,0.9999938153971772,0.0,0.0,0.0,0.0,0.0,0.0,0.0,0.0,0.0,-0.018672021391027666,-0.0004859127000023543,0.038433291482483624,0.0,0.0,0.0,0.0,0.0,0.0,0.0,0.0,0.0,0.054532077822038234,0.585965406024609,-9.846309197915932,0.0,0.0,0.0,0.0,0.0,0.0,0.0,0.0,0.0
1710444588.9897883,556,1710444588,989624739,map,0.0009084269645190513,3.418317737322296e-05,0.0035651641445818946,0.9999932315753856,0.0,0.0,0.0,0.0,0.0,0.0,0.0,0.0,0.0,-0.020948367418118726,-0.000535370224971692,0.03949610921306,0.0,0.0,0.0,0.0,0.0,0.0,0.0,0.0,0.0,0.0419420474005333,0.6447644394282378,-9.830062742034718,0.0,0.0,0.0,0.0,0.0,0.0,0.0,0.0,0.0
1710444589.0062864,557,1710444589,6096601,map,0.0007950924144303447,3.1662536600075744e-05,0.0037679133489664034,0.9999925847997729,0.0,0.0,0.0,0.0,0.0,0.0,0.0,0.0,0.0,-0.022669743736801636,-0.00039106876028315274,0.04054966693844604,0.0,0.0,0.0,0.0,0.0,0.0,0.0,0.0,0.0,0.042268313602634944,0.6996307597205333,-9.812012314412158,0.0,0.0,0.0,0.0,0.0,0.0,0.0,0.0,0.0
1710444589.02275,558,1710444589,22533655,map,0.0006864332244296978,3.0464742702204545e-05,0.003976082300537396,0.9999918592922981,0.0,0.0,0.0,0.0,0.0,0.0,0.0,0.0,0.0,-0.02173375599450454,-0.0001290902825959787,0.0416335172258573,0.0,0.0,0.0,0.0,0.0,0.0,0.0,0.0,0.0,0.0377659935363306,0.744724436215175,-9.795920458070986,0.0,0.0,0.0,0.0,0.0,0.0,0.0,0.0,0.0
1710444589.0394628,559,1710444589,39217234,map,0.0006008856256593089,3.181335478287589e-05,0.004189576202266534,0.9999910426476933,0.0,0.0,0.0,0.0,0.0,0.0,0.0,0.0,0.0,-0.01710957472111717,0.0003634111680029643,0.04269840734294702,0.0,0.0,0.0,0.0,0.0,0.0,0.0,0.0,0.0,0.035301655913286885,0.7920406848247397,-9.785080795139894,0.0,0.0,0.0,0.0,0.0,0.0,0.0,0.0,0.0
1710444589.0557082,560,1710444589,55571795,map,0.0005725957863381642,3.509158228881605e-05,0.004408571719244153,0.9999901176501909,0.0,0.0,0.0,0.0,0.0,0.0,0.0,0.0,0.0,-0.005656606942634235,0.0007044295034170385,0.0437989324654154,0.0,0.0,0.0,0.0,0.0,0.0,0.0,0.0,0.0,0.02979615550787055,0.8186703682856739,-9.777662811185417,0.0,0.0,0.0,0.0,0.0,0.0,0.0,0.0,0.0
1710444589.0728033,561,1710444589,72614431,map,0.0006305539045858131,4.198622518188742e-05,0.004634556576938792,0.9999890607022986,0.0,0.0,0.0,0.0,0.0,0.0,0.0,0.0,0.0,0.011595817005039524,0.0013563199781752861,0.04519699583599562,0.0,0.0,0.0,0.0,0.0,0.0,0.0,0.0,0.0,0.04864485023024039,0.7782076348656888,-9.776624386564043,0.0,0.0,0.0,0.0,0.0,0.0,0.0,0.0,0.0
1710444589.089519,562,1710444589,89366198,map,0.0007734113007928476,5.3741769377019335e-05,0.004867262097751945,0.9999878542794677,0.0,0.0,0.0,0.0,0.0,0.0,0.0,0.0,0.0,0.028579737291716603,0.0022546745354862056,0.04654110909848412,0.0,0.0,0.0,0.0,0.0,0.0,0.0,0.0,0.0,0.043074024461477296,0.7152517743149395,-9.78057552239918,0.0,0.0,0.0,0.0,0.0,0.0,0.0,0.0,0.0
1710444589.1064281,563,1710444589,106267452,map,0.0009918920292252824,6.801259310825023e-05,0.005102352962936033,0.9999864886680876,0.0,0.0,0.0,0.0,0.0,0.0,0.0,0.0,0.0,0.04370656093603933,0.0026881037711447586,0.04701848631108428,0.0,0.0,0.0,0.0,0.0,0.0,0.0,0.0,0.0,0.039504099674502774,0.6438107942609578,-9.78388358002709,0.0,0.0,0.0,0.0,0.0,0.0,0.0,0.0,0.0
1710444589.1229646,564,1710444589,122691154,map,0.0012832731649160048,8.003192887636276e-05,0.005340963868695095,0.9999849103410651,0.0,0.0,0.0,0.0,0.0,0.0,0.0,0.0,0.0,0.05828425774148751,0.0021677534855895244,0.047724096891282874,0.0,0.0,0.0,0.0,0.0,0.0,0.0,0.0,0.0,0.09712376975386018,0.5370063772310267,-9.78943472796942,0.0,0.0,0.0,0.0,0.0,0.0,0.0,0.0,0.0
1710444589.1392913,565,1710444589,139117479,map,0.0016361514728329256,8.977328160575711e-05,0.005587845957946393,0.9999830453196026,0.0,0.0,0.0,0.0,0.0,0.0,0.0,0.0,0.0,0.07058112494843198,0.001652119087799451,0.049380233658689064,0.0,0.0,0.0,0.0,0.0,0.0,0.0,0.0,0.0,0.11525765367210561,0.3633173464787568,-9.799046442144206,0.0,0.0,0.0,0.0,0.0,0.0,0.0,0.0,0.0
1710444589.1571214,566,1710444589,157039642,map,0.0020382480160208486,9.534363091469928e-05,0.005838773127801062,0.9999808724085573,0.0,0.0,0.0,0.0,0.0,0.0,0.0,0.0,0.0,0.08042018834623219,0.0007670126277927474,0.05019210435798225,0.0,0.0,0.0,0.0,0.0,0.0,0.0,0.0,0.0,0.15022066386779992,0.21090078097214937,-9.810545947088075,0.0,0.0,0.0,0.0,0.0,0.0,0.0,0.0,0.0
1710444589.173069,567,1710444589,172881603,map,0.00246980801997463,0.00011346778039067056,0.006095241210740872,0.9999783673700098,0.0,0.0,0.0,0.0,0.0,0.0,0.0,0.0,0.0,0.08632681768556372,0.003247542331652491,0.051295005329748025,0.0,0.0,0.0,0.0,0.0,0.0,0.0,0.0,0.0,0.12182029787532589,-0.009006412737698248,-9.822814724442036,0.0,0.0,0.0,0.0,0.0,0.0,0.0,0.0,0.0
1710444589.1892385,568,1710444589,189123392,map,0.0029004775700407805,0.00012432088566022344,0.0063559298102702074,0.9999755866672096,0.0,0.0,0.0,0.0,0.0,0.0,0.0,0.0,0.0,0.08614027189887787,0.0017968589598281414,0.05214362576673162,0.0,0.0,0.0,0.0,0.0,0.0,0.0,0.0,0.0,0.024910914998192653,-0.20741498626008228,-9.833904913133802,0.0,0.0,0.0,0.0,0.0,0.0,0.0,0.0,0.0
1710444589.2059038,569,1710444589,205773830,map,0.003309909608897389,0.00013540807408349084,0.006624639743957041,0.9999725697794402,0.0,0.0,0.0,0.0,0.0,0.0,0.0,0.0,0.0,0.08189307275990165,0.001874879690859075,0.05374749576097014,0.0,0.0,0.0,0.0,0.0,0.0,0.0,0.0,0.0,0.15769967354962522,-0.3982221052895045,-9.840537326533903,0.0,0.0,0.0,0.0,0.0,0.0,0.0,0.0,0.0
1710444589.2226088,570,1710444589,222356081,map,0.0036829450384546322,0.00014804701374908165,0.006901035300458994,0.9999693943865019,0.0,0.0,0.0,0.0,0.0,0.0,0.0,0.0,0.0,0.07461578812839913,0.0022371534397540487,0.05528270772126513,0.0,0.0,0.0,0.0,0.0,0.0,0.0,0.0,0.0,0.11365708275149929,-0.5969311758470816,-9.844997895793158,0.0,0.0,0.0,0.0,0.0,0.0,0.0,0.0,0.0
1710444589.2391298,571,1710444589,238997698,map,0.004006702452241106,0.00015866884493461679,0.0071854866098003825,0.9999661443978178,0.0,0.0,0.0,0.0,0.0,0.0,0.0,0.0,0.0,0.06475759449566963,0.0019054907089088224,0.056894155481148054,0.0,0.0,0.0,0.0,0.0,0.0,0.0,0.0,0.0,0.11680035313494805,-0.7633973947416366,-9.847048668005055,0.0,0.0,0.0,0.0,0.0,0.0,0.0,0.0,0.0
1710444589.2556784,572,1710444589,255492687,map,0.004272654742788778,0.00016779198258014933,0.007479308796605205,0.9999628874149403,0.0,0.0,0.0,0.0,0.0,0.0,0.0,0.0,0.0,0.05319455931187467,0.0016935521737127663,0.05876780987354477,0.0,0.0,0.0,0.0,0.0,0.0,0.0,0.0,0.0,0.1366099539752047,-0.9121969345518912,-9.843657257010676,0.0,0.0,0.0,0.0,0.0,0.0,0.0,0.0,0.0
1710444589.2729902,573,1710444589,272877216,map,0.004474233677713622,0.0001755638160591294,0.007784920469300027,0.9999596718986373,0.0,0.0,0.0,0.0,0.0,0.0,0.0,0.0,0.0,0.04031794393683114,0.00152635954108646,0.06112469398956716,0.0,0.0,0.0,0.0,0.0,0.0,0.0,0.0,0.0,0.13556909008915666,-1.0237015908735048,-9.836384559370938,0.0,0.0,0.0,0.0,0.0,0.0,0.0,0.0,0.0
1710444589.2893765,574,1710444589,289282799,map,0.004594192058843919,0.0001831814066248226,0.008105321120626199,0.9999565808641044,0.0,0.0,0.0,0.0,0.0,0.0,0.0,0.0,0.0,0.023993563665143065,0.0016311889732233923,0.06407956009045836,0.0,0.0,0.0,0.0,0.0,0.0,0.0,0.0,0.0,0.14562907826499852,-1.0786267300043597,-9.825778192733706,0.0,0.0,0.0,0.0,0.0,0.0,0.0,0.0,0.0
1710444589.3062758,575,1710444589,306129217,map,0.004596397316696536,0.00018448667978089754,0.008438512749013062,0.9999538142329158,0.0,0.0,0.0,0.0,0.0,0.0,0.0,0.0,0.0,0.0004332956849752142,0.0005638634603773258,0.06663879865487274,0.0,0.0,0.0,0.0,0.0,0.0,0.0,0.0,0.0,0.16720114901371488,-1.1162897914827061,-9.80783579852467,0.0,0.0,0.0,0.0,0.0,0.0,0.0,0.0,0.0
1710444589.3226726,576,1710444589,322568417,map,0.004438683893264418,0.00018736598515641428,0.008785768475651821,0.9999515354513815,0.0,0.0,0.0,0.0,0.0,0.0,0.0,0.0,0.0,-0.03154748788571235,0.0011503632082385416,0.06944350120301718,0.0,0.0,0.0,0.0,0.0,0.0,0.0,0.0,0.0,0.15090134967915939,-1.1061038005526236,-9.786074050618543,0.0,0.0,0.0,0.0,0.0,0.0,0.0,0.0,0.0
1710444589.339008,577,1710444589,338789225,map,0.0041095211243607115,0.00018354327801066163,0.00915014052395735,0.9999496752719036,0.0,0.0,0.0,0.0,0.0,0.0,0.0,0.0,0.0,-0.06584813004129124,0.00011343118791403387,0.07286524814079773,0.0,0.0,0.0,0.0,0.0,0.0,0.0,0.0,0.0,0.009425342348341402,-0.9278240463984885,-9.760826828142472,0.0,0.0,0.0,0.0,0.0,0.0,0.0,0.0,0.0
1710444589.3559558,578,1710444589,355758190,map,0.003630370156857802,0.00017484767660263126,0.00954950667991731,0.9999477970189166,0.0,0.0,0.0,0.0,0.0,0.0,0.0,0.0,0.0,-0.09585418336902274,-0.0005721389608007628,0.07986194389806243,0.0,0.0,0.0,0.0,0.0,0.0,0.0,0.0,0.0,-0.008172588034717376,-0.721605605863141,-9.738627358647069,0.0,0.0,0.0,0.0,0.0,0.0,0.0,0.0,0.0
1710444589.3724566,579,1710444589,372174501,map,0.0030385294184920512,0.00017600207422486253,0.009962904633726318,0.9999457369745132,0.0,0.0,0.0,0.0,0.0,0.0,0.0,0.0,0.0,-0.11837340778018363,0.0016125319429258086,0.08265864578666832,0.0,0.0,0.0,0.0,0.0,0.0,0.0,0.0,0.0,-0.145394995713006,-0.48411632334819765,-9.7260242365047,0.0,0.0,0.0,0.0,0.0,0.0,0.0,0.0,0.0
1710444589.3889773,580,1710444589,388817787,map,0.0023911225536298567,0.00017779628091748519,0.010385807854043902,0.9999431913447059,0.0,0.0,0.0,0.0,0.0,0.0,0.0,0.0,0.0,-0.12948491448194607,0.0018511781499808754,0.08455846623763316,0.0,0.0,0.0,0.0,0.0,0.0,0.0,0.0,0.0,-0.06224598541781748,-0.18988336349460153,-9.717890065524362,0.0,0.0,0.0,0.0,0.0,0.0,0.0,0.0,0.0
1710444589.4054468,581,1710444589,405327082,map,0.001749936684385055,0.00017093310156503284,0.010820607917658034,0.9999399096684599,0.0,0.0,0.0,0.0,0.0,0.0,0.0,0.0,0.0,-0.12825810600481344,0.00011158215670827548,0.08694246343382901,0.0,0.0,0.0,0.0,0.0,0.0,0.0,0.0,0.0,0.08166535711562427,0.10141671619168248,-9.721416518285645,0.0,0.0,0.0,0.0,0.0,0.0,0.0,0.0,0.0
1710444589.4225118,582,1710444589,422319651,map,0.0011718013320435158,0.00016660291158188527,0.01126695420405644,0.9999358253748446,0.0,0.0,0.0,0.0,0.0,0.0,0.0,0.0,0.0,-0.11564355967362823,0.000489915844872268,0.08925478414775118,0.0,0.0,0.0,0.0,0.0,0.0,0.0,0.0,0.0,0.15840011222072692,0.3909513721582294,-9.73099843013946,0.0,0.0,0.0,0.0,0.0,0.0,0.0,0.0,0.0
1710444589.4390333,583,1710444589,438890934,map,0.0006882102009594564,0.00016843526388188112,0.011723900495799496,0.9999310216977199,0.0,0.0,0.0,0.0,0.0,0.0,0.0,0.0,0.0,-0.09672269827100934,0.0015192253843699208,0.09137842365610592,0.0,0.0,0.0,0.0,0.0,0.0,0.0,0.0,0.0,0.1022219545680497,0.6728915148950487,-9.745426013118841,0.0,0.0,0.0,0.0,0.0,0.0,0.0,0.0,0.0
1710444589.455568,584,1710444589,455443859,map,0.0003082714976800058,0.00016405002689892466,0.012191983878754448,0.9999256140260497,0.0,0.0,0.0,0.0,0.0,0.0,0.0,0.0,0.0,-0.07600783583788213,4.292019631675586e-05,0.09361072993969884,0.0,0.0,0.0,0.0,0.0,0.0,0.0,0.0,0.0,0.08204410889023026,0.9712666626697408,-9.762486444891609,0.0,0.0,0.0,0.0,0.0,0.0,0.0,0.0,0.0
1710444589.4727046,585,1710444589,472562790,map,6.388500615468008e-05,0.00015621397287654676,0.012671650016634287,0.9999196971766066,0.0,0.0,0.0,0.0,0.0,0.0,0.0,0.0,0.0,-0.048907686276690295,-0.0009648747654226771,0.09593275451951186,0.0,0.0,0.0,0.0,0.0,0.0,0.0,0.0,0.0,0.16212866015211408,1.2411955969399069,-9.780554567642247,0.0,0.0,0.0,0.0,0.0,0.0,0.0,0.0,0.0
1710444589.4898853,586,1710444589,489775896,map,-3.9685518474948315e-05,0.0001590712964375968,0.013162419506879925,0.9999133581636497,0.0,0.0,0.0,0.0,0.0,0.0,0.0,0.0,0.0,-0.020720862131082797,0.0008301997406462588,0.09815889930472246,0.0,0.0,0.0,0.0,0.0,0.0,0.0,0.0,0.0,0.14847348779414513,1.2477561820898528,-9.807823225670509,0.0,0.0,0.0,0.0,0.0,0.0,0.0,0.0,0.0
1710444589.5063508,587,1710444589,506232500,map,-2.6464462125216487e-05,0.00017072394157383088,0.013662170538724596,0.9999066532677633,0.0,0.0,0.0,0.0,0.0,0.0,0.0,0.0,0.0,0.0026575593903909334,0.0022930981540529066,0.09995968384316486,0.0,0.0,0.0,0.0,0.0,0.0,0.0,0.0,0.0,0.043275707630500114,1.3070352103944907,-9.833624119390892,0.0,0.0,0.0,0.0,0.0,0.0,0.0,0.0,0.0
1710444589.52293,588,1710444589,522665501,map,6.110594039167346e-05,0.00018639671558173885,0.014171084298674235,0.9998995659025602,0.0,0.0,0.0,0.0,0.0,0.0,0.0,0.0,0.0,0.01753638169897958,0.002901456222409386,0.10179544008019395,0.0,0.0,0.0,0.0,0.0,0.0,0.0,0.0,0.0,0.05759505346955478,1.3427540487791816,-9.854597037113784,0.0,0.0,0.0,0.0,0.0,0.0,0.0,0.0,0.0
1710444589.5391462,589,1710444589,539055109,map,0.0001732520884562735,0.00019193692358550454,0.014689585326385823,0.9998920687888619,0.0,0.0,0.0,0.0,0.0,0.0,0.0,0.0,0.0,0.02242302523348665,0.0008083281390566154,0.1037150666540243,0.0,0.0,0.0,0.0,0.0,0.0,0.0,0.0,0.0,0.05741092263794778,1.3252485030445516,-9.870455131499831,0.0,0.0,0.0,0.0,0.0,0.0,0.0,0.0,0.0
1710444589.5554132,590,1710444589,555213690,map,0.00028943272584107583,0.00017533452614662762,0.01521404386257084,0.9998842024733909,0.0,0.0,0.0,0.0,0.0,0.0,0.0,0.0,0.0,0.02316689085880858,-0.0036308239597623504,0.10490895798775257,0.0,0.0,0.0,0.0,0.0,0.0,0.0,0.0,0.0,0.14134250215513855,1.294803045657505,-9.881646834347407,0.0,0.0,0.0,0.0,0.0,0.0,0.0,0.0,0.0
1710444589.572552,591,1710444589,572287321,map,0.00041669237191946807,0.00018047961583236315,0.015743232367485288,0.9998759645221996,0.0,0.0,0.0,0.0,0.0,0.0,0.0,0.0,0.0,0.02544619785157693,0.0006860618715122018,0.10585459503077795,0.0,0.0,0.0,0.0,0.0,0.0,0.0,0.0,0.0,0.20443047226201363,1.2380669935220696,-9.89309558221337,0.0,0.0,0.0,0.0,0.0,0.0,0.0,0.0,0.0
1710444589.5892115,592,1710444589,589069843,map,0.0005288049586063856,0.0002012768530308437,0.01627941431892225,0.999867321459391,0.0,0.0,0.0,0.0,0.0,0.0,0.0,0.0,0.0,0.02246451733477247,0.00386297260780357,0.10725218865509564,0.0,0.0,0.0,0.0,0.0,0.0,0.0,0.0,0.0,-0.052118325837157094,1.1380098336017677,-9.90465189783159,0.0,0.0,0.0,0.0,0.0,0.0,0.0,0.0,0.0
1710444589.605757,593,1710444589,605635643,map,0.0006129592979926311,0.00020077738338565346,0.01682076878031322,0.9998583128158612,0.0,0.0,0.0,0.0,0.0,0.0,0.0,0.0,0.0,0.0168063377007062,-0.00030716082709244207,0.10828933011563267,0.0,0.0,0.0,0.0,0.0,0.0,0.0,0.0,0.0,-0.017777561035095143,1.1447912003990717,-9.902498214480087,0.0,0.0,0.0,0.0,0.0,0.0,0.0,0.0,0.0
1710444589.6230237,594,1710444589,622762918,map,0.0006778687664531962,0.00021404820907687018,0.017368390384637382,0.999848905431589,0.0,0.0,0.0,0.0,0.0,0.0,0.0,0.0,0.0,0.013002489870585422,0.0025100572816995985,0.10954127266670935,0.0,0.0,0.0,0.0,0.0,0.0,0.0,0.0,0.0,0.169917307290451,1.0668705874957145,-9.89149137915479,0.0,0.0,0.0,0.0,0.0,0.0,0.0,0.0,0.0
1710444589.640375,595,1710444589,640148878,map,0.0007335395423297738,0.00023413457907744576,0.017923893504995948,0.9998390576199553,0.0,0.0,0.0,0.0,0.0,0.0,0.0,0.0,0.0,0.01117763270035538,0.0039052286438061284,0.11111749321492412,0.0,0.0,0.0,0.0,0.0,0.0,0.0,0.0,0.0,0.012322903200082422,1.0014635442526632,-9.880834255439652,0.0,0.0,0.0,0.0,0.0,0.0,0.0,0.0,0.0
1710444589.6555734,596,1710444589,655463934,map,0.0007965416821644327,0.00024961031712265576,0.018485753568554943,0.9998287754065898,0.0,0.0,0.0,0.0,0.0,0.0,0.0,0.0,0.0,0.012627414710794942,0.0029588080684354117,0.11239128587612517,0.0,0.0,0.0,0.0,0.0,0.0,0.0,0.0,0.0,0.03208458504051544,0.9410388437165124,-9.865501426960739,0.0,0.0,0.0,0.0,0.0,0.0,0.0,0.0,0.0
1710444589.67248,597,1710444589,672250271,map,0.0008931644591577928,0.0002639059191492121,0.019054936950593463,0.9998180044331687,0.0,0.0,0.0,0.0,0.0,0.0,0.0,0.0,0.0,0.019345921581492478,0.002603629251346908,0.11385930772555991,0.0,0.0,0.0,0.0,0.0,0.0,0.0,0.0,0.0,0.12386447045291961,0.8679825574931591,-9.84504120229082,0.0,0.0,0.0,0.0,0.0,0.0,0.0,0.0,0.0
1710444589.6886945,598,1710444589,688594341,map,0.001029450455700206,0.000283970791161349,0.01963463815965942,0.9998066515965416,0.0,0.0,0.0,0.0,0.0,0.0,0.0,0.0,0.0,0.027298046119933764,0.0036128415663346024,0.11596553029007571,0.0,0.0,0.0,0.0,0.0,0.0,0.0,0.0,0.0,0.12274408217291516,0.776933614747958,-9.827781001835287,0.0,0.0,0.0,0.0,0.0,0.0,0.0,0.0,0.0
1710444589.706048,599,1710444589,705877542,map,0.001196946998351784,0.0003037362601706165,0.020224393251914278,0.9997947034165361,0.0,0.0,0.0,0.0,0.0,0.0,0.0,0.0,0.0,0.03353739325022638,0.0034364703471873267,0.11798000802646759,0.0,0.0,0.0,0.0,0.0,0.0,0.0,0.0,0.0,0.08143336321811516,0.6908613685668169,-9.807062800824454,0.0,0.0,0.0,0.0,0.0,0.0,0.0,0.0,0.0
1710444589.7226832,600,1710444589,722443581,map,0.0013892353208220928,0.00032470336020026347,0.02082440909881721,0.9997821305557708,0.0,0.0,0.0,0.0,0.0,0.0,0.0,0.0,0.0,0.03849899631181377,0.003582284297605886,0.12003537039960673,0.0,0.0,0.0,0.0,0.0,0.0,0.0,0.0,0.0,0.11359082606562215,0.6068213991141959,-9.78613644922808,0.0,0.0,0.0,0.0,0.0,0.0,0.0,0.0,0.0
1710444589.739264,601,1710444589,739044189,map,0.0016031116823303979,0.00034723141081540495,0.021429872910435542,0.9997690083265854,0.0,0.0,0.0,0.0,0.0,0.0,0.0,0.0,0.0,0.04282180767709798,0.003808872580717215,0.12112785705594982,0.0,0.0,0.0,0.0,0.0,0.0,0.0,0.0,0.0,0.11823516235862087,0.510094506681366,-9.7689852135086,0.0,0.0,0.0,0.0,0.0,0.0,0.0,0.0,0.0
1710444589.7565277,602,1710444589,756311417,map,0.0018340386715342764,0.0003738030845304034,0.022040007954469053,0.9997553373814877,0.0,0.0,0.0,0.0,0.0,0.0,0.0,0.0,0.0,0.04624785972423862,0.004548159225302382,0.1220638916157006,0.0,0.0,0.0,0.0,0.0,0.0,0.0,0.0,0.0,0.15693042751487643,0.39493475139800244,-9.758342990953947,0.0,0.0,0.0,0.0,0.0,0.0,0.0,0.0,0.0
1710444589.7727783,603,1710444589,772521734,map,0.002070743769704783,0.0004020961116482566,0.022655567251263012,0.9997411042922466,0.0,0.0,0.0,0.0,0.0,0.0,0.0,0.0,0.0,0.04741036478427288,0.004869874655856363,0.12315065295326251,0.0,0.0,0.0,0.0,0.0,0.0,0.0,0.0,0.0,0.16259510221846848,0.2715378375971413,-9.751400912812494,0.0,0.0,0.0,0.0,0.0,0.0,0.0,0.0,0.0
1710444589.7889776,604,1710444589,788820505,map,0.002299349814117999,0.00042598992516331406,0.023276905195851166,0.9997263211537043,0.0,0.0,0.0,0.0,0.0,0.0,0.0,0.0,0.0,0.0457712975846774,0.004028650790246664,0.12430997867926401,0.0,0.0,0.0,0.0,0.0,0.0,0.0,0.0,0.0,0.18315635719304046,0.15499823339757518,-9.748870975158718,0.0,0.0,0.0,0.0,0.0,0.0,0.0,0.0,0.0
1710444589.8068883,605,1710444589,806676626,map,0.0025109873281709484,0.000449490927038449,0.02390585754378557,0.9997109596656629,0.0,0.0,0.0,0.0,0.0,0.0,0.0,0.0,0.0,0.04237627621418895,0.004030868575325949,0.12583393774764323,0.0,0.0,0.0,0.0,0.0,0.0,0.0,0.0,0.0,0.2091155666486417,0.04166783567046782,-9.750250729487476,0.0,0.0,0.0,0.0,0.0,0.0,0.0,0.0,0.0
1710444589.8236785,606,1710444589,823395014,map,0.0027036705886867287,0.000473107416779819,0.024542942381676605,0.9996950086471222,0.0,0.0,0.0,0.0,0.0,0.0,0.0,0.0,0.0,0.03858653113630658,0.004146649689548972,0.12746107622875832,0.0,0.0,0.0,0.0,0.0,0.0,0.0,0.0,0.0,0.1857310219751372,-0.06405714944292361,-9.756882211565047,0.0,0.0,0.0,0.0,0.0,0.0,0.0,0.0,0.0
1710444589.8402565,607,1710444589,840081692,map,0.002878591630212377,0.000496027445620748,0.025188695631329583,0.9996784469415112,0.0,0.0,0.0,0.0,0.0,0.0,0.0,0.0,0.0,0.035031257438692266,0.004097370593255421,0.12919600565756997,0.0,0.0,0.0,0.0,0.0,0.0,0.0,0.0,0.0,0.19042602257758645,-0.15938554831905014,-9.768193589357777,0.0,0.0,0.0,0.0,0.0,0.0,0.0,0.0,0.0
1710444589.8556027,608,1710444589,855406761,map,0.0030406382280278007,0.0005180409173178703,0.025844298037769796,0.9996612218205272,0.0,0.0,0.0,0.0,0.0,0.0,0.0,0.0,0.0,0.03245206720425452,0.003985365549545322,0.13116786160436336,0.0,0.0,0.0,0.0,0.0,0.0,0.0,0.0,0.0,0.2010681851055916,-0.2538264259275536,-9.781672620339968,0.0,0.0,0.0,0.0,0.0,0.0,0.0,0.0,0.0
1710444589.8723059,609,1710444589,872156382,map,0.0031979905123978134,0.0005392846911949385,0.026511223405080966,0.9996432548976012,0.0,0.0,0.0,0.0,0.0,0.0,0.0,0.0,0.0,0.031508858924161054,0.003862443711200764,0.13343554114449063,0.0,0.0,0.0,0.0,0.0,0.0,0.0,0.0,0.0,0.21133759488575873,-0.3436708484988536,-9.796248283601681,0.0,0.0,0.0,0.0,0.0,0.0,0.0,0.0,0.0
1710444589.8889792,610,1710444589,888899803,map,0.0033578054456569785,0.000560742999914704,0.02719058018635276,0.9996244710184954,0.0,0.0,0.0,0.0,0.0,0.0,0.0,0.0,0.0,0.03200145828613227,0.0039010441162818264,0.13592538202671134,0.0,0.0,0.0,0.0,0.0,0.0,0.0,0.0,0.0,0.22225262582021865,-0.4240104261557276,-9.811718482153823,0.0,0.0,0.0,0.0,0.0,0.0,0.0,0.0,0.0
1710444589.9065924,611,1710444589,906419516,map,0.003524471372996266,0.000580337238779702,0.02788389710433584,0.9996047866994761,0.0,0.0,0.0,0.0,0.0,0.0,0.0,0.0,0.0,0.033360267489893417,0.0035019798375543233,0.1387233186500729,0.0,0.0,0.0,0.0,0.0,0.0,0.0,0.0,0.0,0.22491247387203744,-0.5056331625326618,-9.825389365577271,0.0,0.0,0.0,0.0,0.0,0.0,0.0,0.0,0.0
1710444589.9230561,612,1710444589,922875881,map,0.0037012920334580845,0.0005984850084094953,0.02859338974304518,0.999584093668952,0.0,0.0,0.0,0.0,0.0,0.0,0.0,0.0,0.0,0.035381358419485316,0.003169664168125666,0.14196503231290117,0.0,0.0,0.0,0.0,0.0,0.0,0.0,0.0,0.0,0.2439133725255197,-0.5776833002810848,-9.835826697175241,0.0,0.0,0.0,0.0,0.0,0.0,0.0,0.0,0.0
1710444589.9398887,613,1710444589,939802170,map,0.0038818306832890084,0.0006146057214616403,0.02932125300660398,0.9995623131013275,0.0,0.0,0.0,0.0,0.0,0.0,0.0,0.0,0.0,0.036111903163560846,0.0027580717613404624,0.1456458578825018,0.0,0.0,0.0,0.0,0.0,0.0,0.0,0.0,0.0,0.2460919705737005,-0.6410353512570235,-9.843823032421083,0.0,0.0,0.0,0.0,0.0,0.0,0.0,0.0,0.0
1710444589.9565465,614,1710444589,956406593,map,0.0040341839959314955,0.0006313584282580495,0.030070033494642434,0.9995394538644552,0.0,0.0,0.0,0.0,0.0,0.0,0.0,0.0,0.0,0.03047898849576454,0.003062608772078545,0.14982987387477636,0.0,0.0,0.0,0.0,0.0,0.0,0.0,0.0,0.0,0.24704927009051872,-0.7054072004037283,-9.8466346951403,0.0,0.0,0.0,0.0,0.0,0.0,0.0,0.0,0.0
1710444589.9729753,615,1710444589,972862959,map,0.0041243288838058835,0.0006496831224485082,0.030839542978557993,0.9995156278978194,0.0,0.0,0.0,0.0,0.0,0.0,0.0,0.0,0.0,0.01805004722161696,0.003758893128424572,0.1539705817139918,0.0,0.0,0.0,0.0,0.0,0.0,0.0,0.0,0.0,0.24152367894809448,-0.6952241198565531,-9.841368066231002,0.0,0.0,0.0,0.0,0.0,0.0,0.0,0.0,0.0
1710444589.989014,616,1710444589,988897800,map,0.004121072936339688,0.0006579526204731917,0.03162600738088571,0.9994910602468372,0.0,0.0,0.0,0.0,0.0,0.0,0.0,0.0,0.0,-0.0006836232721875864,0.0023245635376602635,0.15736100310852255,0.0,0.0,0.0,0.0,0.0,0.0,0.0,0.0,0.0,0.2645348360464893,-0.711579191227873,-9.831713045558551,0.0,0.0,0.0,0.0,0.0,0.0,0.0,0.0,0.0
1710444590.0055964,617,1710444590,5458117,map,0.003986813313118225,0.0006601493530104048,0.03244009764623095,0.9994655119548354,0.0,0.0,0.0,0.0,0.0,0.0,0.0,0.0,0.0,-0.026912022694978777,0.0019407728954881594,0.16287758934732915,0.0,0.0,0.0,0.0,0.0,0.0,0.0,0.0,0.0,0.26667837489457136,-0.6657622845807332,-9.817528537759598,0.0,0.0,0.0,0.0,0.0,0.0,0.0,0.0,0.0
1710444590.0226548,618,1710444590,22386789,map,0.0037087537292014544,0.0006482263551505641,0.033297184804238995,0.9994384035209379,0.0,0.0,0.0,0.0,0.0,0.0,0.0,0.0,0.0,-0.0557511679618668,5.9919904315186956e-05,0.17147453023801787,0.0,0.0,0.0,0.0,0.0,0.0,0.0,0.0,0.0,0.024236446492319208,-0.5241889781470989,-9.798531420784906,0.0,0.0,0.0,0.0,0.0,0.0,0.0,0.0,0.0
1710444590.0387084,619,1710444590,38518429,map,0.003276124841615687,0.0006240302348626277,0.03420325251918349,0.9994093331110118,0.0,0.0,0.0,0.0,0.0,0.0,0.0,0.0,0.0,-0.08673302923551751,-0.0013582060306270446,0.1812666787238542,0.0,0.0,0.0,0.0,0.0,0.0,0.0,0.0,0.0,-0.09390396653176072,-0.2998071289247241,-9.782395792284808,0.0,0.0,0.0,0.0,0.0,0.0,0.0,0.0,0.0
1710444590.0553632,620,1710444590,55257559,map,0.002734679865253462,0.0006262682458075847,0.03511877160733097,0.9993792079060436,0.0,0.0,0.0,0.0,0.0,0.0,0.0,0.0,0.0,-0.10830856040975118,0.004655631494104837,0.18313527197601479,0.0,0.0,0.0,0.0,0.0,0.0,0.0,0.0,0.0,-0.21392636411102062,0.16060333983900926,-9.763670155827722,0.0,0.0,0.0,0.0,0.0,0.0,0.0,0.0,0.0
1710444590.0722435,621,1710444590,72112322,map,0.0021423847145822157,0.0006178199737489511,0.03604727349902773,0.9993475984658697,0.0,0.0,0.0,0.0,0.0,0.0,0.0,0.0,0.0,-0.11854656663460592,0.002873228398602547,0.18573930989210988,0.0,0.0,0.0,0.0,0.0,0.0,0.0,0.0,0.0,-0.10627967135374132,0.25670913109354143,-9.757797701612411,0.0,0.0,0.0,0.0,0.0,0.0,0.0,0.0,0.0
1710444590.0894756,622,1710444590,89242220,map,0.0015490205685713013,0.000587539807660856,0.036989215832604914,0.9993142915241139,0.0,0.0,0.0,0.0,0.0,0.0,0.0,0.0,0.0,-0.11891449589765825,-0.0014785790336164573,0.18844452466258182,0.0,0.0,0.0,0.0,0.0,0.0,0.0,0.0,0.0,0.22335467141194898,0.5182616850418542,-9.760067800280211,0.0,0.0,0.0,0.0,0.0,0.0,0.0,0.0,0.0
1710444590.105838,623,1710444590,105639696,map,0.0010199361080189626,0.0005475951177964357,0.037940943725319254,0.9992793126344379,0.0,0.0,0.0,0.0,0.0,0.0,0.0,0.0,0.0,-0.10613720316369973,-0.0038714731035209447,0.19042202978322512,0.0,0.0,0.0,0.0,0.0,0.0,0.0,0.0,0.0,0.34776712876756344,0.7960553397668317,-9.763656651651031,0.0,0.0,0.0,0.0,0.0,0.0,0.0,0.0,0.0
1710444590.1223288,624,1710444590,122143507,map,0.0006145277189519468,0.0005209756516989112,0.03891550303380766,0.9992421801363666,0.0,0.0,0.0,0.0,0.0,0.0,0.0,0.0,0.0,-0.08132236862919795,-0.0021201725374281363,0.1950133746324016,0.0,0.0,0.0,0.0,0.0,0.0,0.0,0.0,0.0,0.3489868684250812,0.9936000388827156,-9.77298244980899,0.0,0.0,0.0,0.0,0.0,0.0,0.0,0.0,0.0
1710444590.1387742,625,1710444590,138597488,map,0.0003583729621786183,0.0005219874954486267,0.039907325283335786,0.9992031847860597,0.0,0.0,0.0,0.0,0.0,0.0,0.0,0.0,0.0,-0.05128508219701674,0.002270960165979937,0.1984914371353297,0.0,0.0,0.0,0.0,0.0,0.0,0.0,0.0,0.0,0.1288188880358233,1.1194750309519221,-9.786048904910224,0.0,0.0,0.0,0.0,0.0,0.0,0.0,0.0,0.0
1710444590.1555912,626,1710444590,155358553,map,0.00024826825451223247,0.0005299995122666313,0.040916265352792816,0.9991624075659425,0.0,0.0,0.0,0.0,0.0,0.0,0.0,0.0,0.0,-0.0220444255249937,0.0025342387808229613,0.2019409340604495,0.0,0.0,0.0,0.0,0.0,0.0,0.0,0.0,0.0,0.06428275868792954,1.29532545938939,-9.79899102845365,0.0,0.0,0.0,0.0,0.0,0.0,0.0,0.0,0.0
1710444590.1726794,627,1710444590,172415018,map,0.0002739653187673631,0.0005450379494106227,0.04193847182005208,0.9991200090369708,0.0,0.0,0.0,0.0,0.0,0.0,0.0,0.0,0.0,0.005149004259564742,0.002855402569420257,0.20461895230949873,0.0,0.0,0.0,0.0,0.0,0.0,0.0,0.0,0.0,0.2056200439817065,1.3796981001602457,-9.807826485299366,0.0,0.0,0.0,0.0,0.0,0.0,0.0,0.0,0.0
1710444590.1892211,628,1710444590,188941956,map,0.0004108139044244587,0.0005848915094255188,0.042964390881213406,0.99907634855904,0.0,0.0,0.0,0.0,0.0,0.0,0.0,0.0,0.0,0.02756339454630447,0.006905135039270564,0.20538128343783948,0.0,0.0,0.0,0.0,0.0,0.0,0.0,0.0,0.0,0.2020690785203846,1.3810319286467243,-9.81940654964211,0.0,0.0,0.0,0.0,0.0,0.0,0.0,0.0,0.0
1710444590.2057128,629,1710444590,205571651,map,0.0006401278521771395,0.0006364416771715865,0.04399970851012414,0.999031136066013,0.0,0.0,0.0,0.0,0.0,0.0,0.0,0.0,0.0,0.04613724642375887,0.008468219055620752,0.20728145526278247,0.0,0.0,0.0,0.0,0.0,0.0,0.0,0.0,0.0,0.14743514138931202,1.2721371581973553,-9.831296278726207,0.0,0.0,0.0,0.0,0.0,0.0,0.0,0.0,0.0
1710444590.222523,630,1710444590,222338438,map,0.0009427071654330415,0.0006865564091736445,0.04505580041553217,0.9989837910558975,0.0,0.0,0.0,0.0,0.0,0.0,0.0,0.0,0.0,0.0607619168620005,0.007556036652376283,0.2114602251016982,0.0,0.0,0.0,0.0,0.0,0.0,0.0,0.0,0.0,0.23656892849014574,1.146497034028779,-9.845207443362494,0.0,0.0,0.0,0.0,0.0,0.0,0.0,0.0,0.0
1710444590.2393847,631,1710444590,239028454,map,0.0012864584233935308,0.0007352437799110139,0.04612186148160323,0.9989347217585245,0.0,0.0,0.0,0.0,0.0,0.0,0.0,0.0,0.0,0.06897464981030516,0.006911341275662844,0.21347340751036017,0.0,0.0,0.0,0.0,0.0,0.0,0.0,0.0,0.0,0.2341960751158187,0.9840420503763998,-9.857158639733596,0.0,0.0,0.0,0.0,0.0,0.0,0.0,0.0,0.0
1710444590.2555017,632,1710444590,255287170,map,0.0016504526201597501,0.0007751985715627307,0.047196362348585874,0.9988839664617629,0.0,0.0,0.0,0.0,0.0,0.0,0.0,0.0,0.0,0.0729395791800354,0.004987230621006008,0.21518091258923627,0.0,0.0,0.0,0.0,0.0,0.0,0.0,0.0,0.0,0.2533054419212718,0.8274352337939693,-9.866953824446867,0.0,0.0,0.0,0.0,0.0,0.0,0.0,0.0,0.0
1710444590.2725456,633,1710444590,272359610,map,0.002005569747219572,0.0008177595896027078,0.048282190089773316,0.9988313867111795,0.0,0.0,0.0,0.0,0.0,0.0,0.0,0.0,0.0,0.07118887619189952,0.00559463658207382,0.21745857239287494,0.0,0.0,0.0,0.0,0.0,0.0,0.0,0.0,0.0,0.28775827829314193,0.6629973044033511,-9.87470429054469,0.0,0.0,0.0,0.0,0.0,0.0,0.0,0.0,0.0
1710444590.2895644,634,1710444590,289473772,map,0.002327919108010807,0.0008650639006535317,0.04937678418621298,0.9987771351209951,0.0,0.0,0.0,0.0,0.0,0.0,0.0,0.0,0.0,0.06468658639303798,0.006855896339653539,0.21921844947081306,0.0,0.0,0.0,0.0,0.0,0.0,0.0,0.0,0.0,0.23731353176712047,0.49921934071678076,-9.876390449985943,0.0,0.0,0.0,0.0,0.0,0.0,0.0,0.0,0.0
1710444590.3056917,635,1710444590,305466175,map,0.002588354423056678,0.0009121224430728295,0.050480697107447466,0.9987212662567949,0.0,0.0,0.0,0.0,0.0,0.0,0.0,0.0,0.0,0.0523149496919285,0.0074097727674775505,0.22108558542434098,0.0,0.0,0.0,0.0,0.0,0.0,0.0,0.0,0.0,0.2241581826579596,0.34449172199789635,-9.873519648286047,0.0,0.0,0.0,0.0,0.0,0.0,0.0,0.0,0.0
1710444590.3226125,636,1710444590,322424412,map,0.0027677940482214733,0.0009568861727087153,0.05159377705634351,0.9986638602923505,0.0,0.0,0.0,0.0,0.0,0.0,0.0,0.0,0.0,0.03611201634303906,0.007756586842030906,0.22291911255292776,0.0,0.0,0.0,0.0,0.0,0.0,0.0,0.0,0.0,0.2403139619217142,0.23277382192065482,-9.86300361993426,0.0,0.0,0.0,0.0,0.0,0.0,0.0,0.0,0.0
1710444590.3389652,637,1710444590,338799715,map,0.0028589705948624763,0.000998569168367702,0.05271301190844937,0.9986051109033507,0.0,0.0,0.0,0.0,0.0,0.0,0.0,0.0,0.0,0.018450391452751205,0.00803612054517641,0.22414778200813462,0.0,0.0,0.0,0.0,0.0,0.0,0.0,0.0,0.0,0.24448854604254863,0.15270290170996637,-9.848860555987908,0.0,0.0,0.0,0.0,0.0,0.0,0.0,0.0,0.0
1710444590.3556097,638,1710444590,355475426,map,0.00287034034295435,0.0010324580790297098,0.053836860615469634,0.9985450854196325,0.0,0.0,0.0,0.0,0.0,0.0,0.0,0.0,0.0,0.002429708999007645,0.007305798069169531,0.22507188948474094,0.0,0.0,0.0,0.0,0.0,0.0,0.0,0.0,0.0,0.2532639907927126,0.09892539931908681,-9.830149355030043,0.0,0.0,0.0,0.0,0.0,0.0,0.0,0.0,0.0
1710444590.3726597,639,1710444590,372378111,map,0.002825580710297355,0.0010634891874215905,0.05497146734356797,0.9984833613348262,0.0,0.0,0.0,0.0,0.0,0.0,0.0,0.0,0.0,-0.008811968997075571,0.007333215840122848,0.22722911653707728,0.0,0.0,0.0,0.0,0.0,0.0,0.0,0.0,0.0,0.275384854483765,0.08473867962912408,-9.812438394469806,0.0,0.0,0.0,0.0,0.0,0.0,0.0,0.0,0.0
1710444590.388878,640,1710444590,388620377,map,0.0027471670927861768,0.001085763872636887,0.056118037727191886,0.9984197714545855,0.0,0.0,0.0,0.0,0.0,0.0,0.0,0.0,0.0,-0.015628827816498013,0.005953812885926583,0.22963666625763343,0.0,0.0,0.0,0.0,0.0,0.0,0.0,0.0,0.0,0.2752058259171926,0.10278200591739053,-9.795638267344282,0.0,0.0,0.0,0.0,0.0,0.0,0.0,0.0,0.0
1710444590.4070857,641,1710444590,406870842,map,0.0026926882886349163,0.0011178781411831625,0.05727559023899068,0.9983541488575168,0.0,0.0,0.0,0.0,0.0,0.0,0.0,0.0,0.0,-0.010742305014565237,0.007661953042817315,0.2318521742251027,0.0,0.0,0.0,0.0,0.0,0.0,0.0,0.0,0.0,0.34494606914953374,0.30760705698005864,-9.77895781516391,0.0,0.0,0.0,0.0,0.0,0.0,0.0,0.0,0.0
1710444590.4239151,642,1710444590,423745871,map,0.002684612030957097,0.001156722516098209,0.058448516544681306,0.9982861442316978,0.0,0.0,0.0,0.0,0.0,0.0,0.0,0.0,0.0,-0.001403220185285305,0.008493829611028084,0.23495555877655322,0.0,0.0,0.0,0.0,0.0,0.0,0.0,0.0,0.0,0.2680578672888677,0.12965552125830987,-9.773504921748534,0.0,0.0,0.0,0.0,0.0,0.0,0.0,0.0,0.0
1710444590.4407785,643,1710444590,440580130,map,0.002735864492897959,0.0011979875222633439,0.059638029757623466,0.9982156005983888,0.0,0.0,0.0,0.0,0.0,0.0,0.0,0.0,0.0,0.010468098358826063,0.008307205994999367,0.23830886890479952,0.0,0.0,0.0,0.0,0.0,0.0,0.0,0.0,0.0,0.30468510166258533,0.12131485861068797,-9.766003118766324,0.0,0.0,0.0,0.0,0.0,0.0,0.0,0.0,0.0
1710444590.4558625,644,1710444590,455615282,map,0.0028572271633871857,0.0012481147504114951,0.0608393759612512,0.9981426996152164,0.0,0.0,0.0,0.0,0.0,0.0,0.0,0.0,0.0,0.02456803763303328,0.009264376810294529,0.24071061071975092,0.0,0.0,0.0,0.0,0.0,0.0,0.0,0.0,0.0,0.3528895118240126,0.08962957810507297,-9.76029737128395,0.0,0.0,0.0,0.0,0.0,0.0,0.0,0.0,0.0
1710444590.4724176,645,1710444590,472170830,map,0.003042992503773638,0.0013025414781484019,0.06206177040502312,0.9980668215287561,0.0,0.0,0.0,0.0,0.0,0.0,0.0,0.0,0.0,0.03747309797857055,0.009368135894425781,0.24496167304465336,0.0,0.0,0.0,0.0,0.0,0.0,0.0,0.0,0.0,0.31122409904731524,-0.058852424378065725,-9.758769536672862,0.0,0.0,0.0,0.0,0.0,0.0,0.0,0.0,0.0
1710444590.4896135,646,1710444590,489445448,map,0.0032820926779047756,0.0013438049453203824,0.06330137275430656,0.9979881553722685,0.0,0.0,0.0,0.0,0.0,0.0,0.0,0.0,0.0,0.047957171728631585,0.00610343728483435,0.24845340986981226,0.0,0.0,0.0,0.0,0.0,0.0,0.0,0.0,0.0,0.39381541085584465,-0.22010672956198155,-9.761109018869176,0.0,0.0,0.0,0.0,0.0,0.0,0.0,0.0,0.0
1710444590.5069227,647,1710444590,506664276,map,0.0035377185330272625,0.0014041965027355142,0.06457980572931898,0.9979052868242188,0.0,0.0,0.0,0.0,0.0,0.0,0.0,0.0,0.0,0.05148524937868467,0.009745150480830104,0.256247962237568,0.0,0.0,0.0,0.0,0.0,0.0,0.0,0.0,0.0,0.4153801403910507,-0.276478168926773,-9.767358193048027,0.0,0.0,0.0,0.0,0.0,0.0,0.0,0.0,0.0
1710444590.5231233,648,1710444590,522943020,map,0.003790520708440693,0.0014676300248302643,0.06588265557360803,0.9978190986894561,0.0,0.0,0.0,0.0,0.0,0.0,0.0,0.0,0.0,0.050955374692080994,0.010407521513255968,0.2611608983623445,0.0,0.0,0.0,0.0,0.0,0.0,0.0,0.0,0.0,0.34253332170150297,-0.2587219519123253,-9.77211026625929,0.0,0.0,0.0,0.0,0.0,0.0,0.0,0.0,0.0
1710444590.5390594,649,1710444590,538947582,map,0.004005991024687386,0.0015447573199222921,0.06721159987318069,0.9977295057294939,0.0,0.0,0.0,0.0,0.0,0.0,0.0,0.0,0.0,0.04367605576077767,0.013644629424518122,0.266391606710315,0.0,0.0,0.0,0.0,0.0,0.0,0.0,0.0,0.0,0.4198243278325156,-0.5146501981679722,-9.784855880748806,0.0,0.0,0.0,0.0,0.0,0.0,0.0,0.0,0.0
1710444590.5566664,650,1710444590,556532145,map,0.0041619615889531975,0.0016131106189882002,0.0685580407779266,0.997637143952928,0.0,0.0,0.0,0.0,0.0,0.0,0.0,0.0,0.0,0.03168302802884109,0.012693085283994012,0.2699098181105202,0.0,0.0,0.0,0.0,0.0,0.0,0.0,0.0,0.0,0.32522893071949904,-0.6101714099117165,-9.795679711196883,0.0,0.0,0.0,0.0,0.0,0.0,0.0,0.0,0.0
1710444590.5728774,651,1710444590,572776318,map,0.004243202578403797,0.00165039559790254,0.06991990027445283,0.9975422191425583,0.0,0.0,0.0,0.0,0.0,0.0,0.0,0.0,0.0,0.016350451924985566,0.007511984981142482,0.2730245417138699,0.0,0.0,0.0,0.0,0.0,0.0,0.0,0.0,0.0,0.35012813688345723,-0.6060882591078978,-9.806164540243902,0.0,0.0,0.0,0.0,0.0,0.0,0.0,0.0,0.0
1710444590.5889602,652,1710444590,588846922,map,0.004216723239885262,0.0016743140675658872,0.07131341261808603,0.9974436390585104,0.0,0.0,0.0,0.0,0.0,0.0,0.0,0.0,0.0,-0.005333561480224365,0.006349909553000115,0.27936724303014243,0.0,0.0,0.0,0.0,0.0,0.0,0.0,0.0,0.0,0.4462856492802332,-0.5912155330628229,-9.815210941642748,0.0,0.0,0.0,0.0,0.0,0.0,0.0,0.0,0.0
1710444590.6061733,653,1710444590,605968475,map,0.004066635300008445,0.0016874707470461313,0.07273878086032372,0.9973413080178563,0.0,0.0,0.0,0.0,0.0,0.0,0.0,0.0,0.0,-0.030152749107865962,0.005958535748058647,0.2857440568839161,0.0,0.0,0.0,0.0,0.0,0.0,0.0,0.0,0.0,0.44791544915648374,-0.435651550331871,-9.815060533054092,0.0,0.0,0.0,0.0,0.0,0.0,0.0,0.0,0.0
1710444590.6221597,654,1710444590,622015238,map,0.0037444087072892266,0.001642718075933222,0.07420158820245709,0.9972348796492173,0.0,0.0,0.0,0.0,0.0,0.0,0.0,0.0,0.0,-0.06532766949133234,-0.00310919686413783,0.29325868570466723,0.0,0.0,0.0,0.0,0.0,0.0,0.0,0.0,0.0,0.33756147456296237,-0.4172101418695252,-9.815728756969639,0.0,0.0,0.0,0.0,0.0,0.0,0.0,0.0,0.0
1710444590.639257,655,1710444590,639120817,map,0.003208410075069269,0.0015807910053467085,0.07576126049660788,0.9971195708702908,0.0,0.0,0.0,0.0,0.0,0.0,0.0,0.0,0.0,-0.1082432762898264,-0.0033600997148891896,0.31265177317759213,0.0,0.0,0.0,0.0,0.0,0.0,0.0,0.0,0.0,0.2316933204383968,0.16036186536917915,-9.804862085685166,0.0,0.0,0.0,0.0,0.0,0.0,0.0,0.0,0.0
1710444590.655809,656,1710444590,655687094,map,0.0025220475768229934,0.001552162788507298,0.07732687046537287,0.9970013967747134,0.0,0.0,0.0,0.0,0.0,0.0,0.0,0.0,0.0,-0.13773886471045987,0.005516656892714071,0.3138160454039256,0.0,0.0,0.0,0.0,0.0,0.0,0.0,0.0,0.0,-0.4976768596037106,0.3676738240743382,-9.792109951937936,0.0,0.0,0.0,0.0,0.0,0.0,0.0,0.0,0.0
1710444590.6720827,657,1710444590,671917200,map,0.0017557256235069339,0.0015200020549258689,0.07890448114116637,0.9968794761038725,0.0,0.0,0.0,0.0,0.0,0.0,0.0,0.0,0.0,-0.1537401738983005,0.0060291182366465365,0.3162447490901327,0.0,0.0,0.0,0.0,0.0,0.0,0.0,0.0,0.0,-0.05076201100473985,0.738139107353548,-9.802268352438057,0.0,0.0,0.0,0.0,0.0,0.0,0.0,0.0,0.0
1710444590.6888003,658,1710444590,688709021,map,0.0009581708088543234,0.0014574535745400462,0.08049601134747336,0.9967534047571278,0.0,0.0,0.0,0.0,0.0,0.0,0.0,0.0,0.0,-0.16044078273362308,0.0004566860312944776,0.3190823894836603,0.0,0.0,0.0,0.0,0.0,0.0,0.0,0.0,0.0,0.27055700945350575,0.9621451442880534,-9.804341010729418,0.0,0.0,0.0,0.0,0.0,0.0,0.0,0.0,0.0
1710444590.7058725,659,1710444590,705773354,map,0.000220108786786263,0.0013872632424359551,0.08210029807449148,0.9966230822677637,0.0,0.0,0.0,0.0,0.0,0.0,0.0,0.0,0.0,-0.1487028179395786,-0.0020040563092127497,0.3217107898598427,0.0,0.0,0.0,0.0,0.0,0.0,0.0,0.0,0.0,0.47334546914499354,1.3953235967443294,-9.806106332585752,0.0,0.0,0.0,0.0,0.0,0.0,0.0,0.0,0.0
1710444590.7223487,660,1710444590,722209692,map,-0.0003786161296241206,0.0013199829571181579,0.08372052960697605,0.9964883276873577,0.0,0.0,0.0,0.0,0.0,0.0,0.0,0.0,0.0,-0.12088317373939554,-0.0036672450818005923,0.32499953691865663,0.0,0.0,0.0,0.0,0.0,0.0,0.0,0.0,0.0,0.43697608742091765,1.647566483331946,-9.813541080345777,0.0,0.0,0.0,0.0,0.0,0.0,0.0,0.0,0.0
1710444590.738935,661,1710444590,738793612,map,-0.0007937401620857035,0.0012598198512115554,0.08535390441581947,0.9963495841477894,0.0,0.0,0.0,0.0,0.0,0.0,0.0,0.0,0.0,-0.08417382824887382,-0.005264483282873102,0.32773473595757724,0.0,0.0,0.0,0.0,0.0,0.0,0.0,0.0,0.0,0.46438191907156456,1.8665001539592558,-9.823055936977404,0.0,0.0,0.0,0.0,0.0,0.0,0.0,0.0,0.0
