Time,header.seq,header.stamp.secs,header.stamp.nsecs,header.frame_id,orientation.x,orientation.y,orientation.z,orientation.w,orientation_covariance_0,orientation_covariance_1,orientation_covariance_2,orientation_covariance_3,orientation_covariance_4,orientation_covariance_5,orientation_covariance_6,orientation_covariance_7,orientation_covariance_8,angular_velocity.x,angular_velocity.y,angular_velocity.z,angular_velocity_covariance_0,angular_velocity_covariance_1,angular_velocity_covariance_2,angular_velocity_covariance_3,angular_velocity_covariance_4,angular_velocity_covariance_5,angular_velocity_covariance_6,angular_velocity_covariance_7,angular_velocity_covariance_8,linear_acceleration.x,linear_acceleration.y,linear_acceleration.z,linear_acceleration_covariance_0,linear_acceleration_covariance_1,linear_acceleration_covariance_2,linear_acceleration_covariance_3,linear_acceleration_covariance_4,linear_acceleration_covariance_5,linear_acceleration_covariance_6,linear_acceleration_covariance_7,linear_acceleration_covariance_8
1710484720.4759262,394,1710484720,475782633,map,0.00040424616659885665,6.447162618945216e-06,1.713340253386663e-08,0.999999918271732,0.0,0.0,0.0,0.0,0.0,0.0,0.0,0.0,0.0,-0.0,0.0,-0.0,0.0,0.0,0.0,0.0,0.0,0.0,0.0,0.0,0.0,1.8403014237704596e-05,-0.00672482533336981,-9.810466319011727,0.0,0.0,0.0,0.0,0.0,0.0,0.0,0.0,0.0
1710484720.4930775,395,1710484720,492959499,map,0.00040424616659885665,6.447162618945216e-06,1.713340253386663e-08,0.999999918271732,0.0,0.0,0.0,0.0,0.0,0.0,0.0,0.0,0.0,-0.0,0.0,-0.0,0.0,0.0,0.0,0.0,0.0,0.0,0.0,0.0,0.0,2.0993738194361426e-05,-0.006750320060265299,-9.810466319011727,0.0,0.0,0.0,0.0,0.0,0.0,0.0,0.0,0.0
1710484720.5101514,396,1710484720,509970665,map,0.00040424616659885665,6.447162618945216e-06,1.713340253386663e-08,0.999999918271732,0.0,0.0,0.0,0.0,0.0,0.0,0.0,0.0,0.0,-0.0,0.0,-0.0,0.0,0.0,0.0,0.0,0.0,0.0,0.0,0.0,0.0,1.830145104023588e-05,-0.0067604290933953514,-9.810466319011727,0.0,0.0,0.0,0.0,0.0,0.0,0.0,0.0,0.0
1710484720.5259807,397,1710484720,525856256,map,0.00040424616659885665,6.447162618945216e-06,1.713340253386663e-08,0.999999918271732,0.0,0.0,0.0,0.0,0.0,0.0,0.0,0.0,0.0,-0.0,0.0,-0.0,0.0,0.0,0.0,0.0,0.0,0.0,0.0,0.0,0.0,2.150757691928293e-05,-0.006776952564978664,-9.80999274150503,0.0,0.0,0.0,0.0,0.0,0.0,0.0,0.0,0.0
1710484720.5430248,398,1710484720,542851925,map,0.00040424616659885665,6.447162618945216e-06,1.713340253386663e-08,0.999999918271732,0.0,0.0,0.0,0.0,0.0,0.0,0.0,0.0,0.0,-0.0,0.0,-0.0,0.0,0.0,0.0,0.0,0.0,0.0,0.0,0.0,0.0,1.6601229823906917e-05,-0.006786870149483087,-9.810936171228304,0.0,0.0,0.0,0.0,0.0,0.0,0.0,0.0,0.0
1710484720.5597494,399,1710484720,559633970,map,0.00040424616659885665,6.447162618945216e-06,1.713340253386663e-08,0.999999918271732,0.0,0.0,0.0,0.0,0.0,0.0,0.0,0.0,0.0,-0.0,0.0,-0.0,0.0,0.0,0.0,0.0,0.0,0.0,0.0,0.0,0.0,2.2259752982740028e-05,-0.006795421218263002,-9.810479823188418,0.0,0.0,0.0,0.0,0.0,0.0,0.0,0.0,0.0
1710484720.576322,400,1710484720,576192379,map,0.00040424616659885665,6.447162618945216e-06,1.713340253386663e-08,0.999999918271732,0.0,0.0,0.0,0.0,0.0,0.0,0.0,0.0,0.0,-0.0,0.0,-0.0,0.0,0.0,0.0,0.0,0.0,0.0,0.0,0.0,0.0,1.8695546444479336e-05,-0.006789268941645076,-9.810466784672993,0.0,0.0,0.0,0.0,0.0,0.0,0.0,0.0,0.0
1710484720.5942528,401,1710484720,594118118,map,0.00040424616659885665,6.447162618945216e-06,1.713340253386663e-08,0.999999918271732,0.0,0.0,0.0,0.0,0.0,0.0,0.0,0.0,0.0,-0.0,0.0,-0.0,0.0,0.0,0.0,0.0,0.0,0.0,0.0,0.0,0.0,1.7959680000568524e-05,-0.006805040261145748,-9.810465853350461,0.0,0.0,0.0,0.0,0.0,0.0,0.0,0.0,0.0
1710484720.6099973,402,1710484720,609853745,map,0.00040424616659885665,6.447162618945216e-06,1.713340253386663e-08,0.999999918271732,0.0,0.0,0.0,0.0,0.0,0.0,0.0,0.0,0.0,-0.0,0.0,-0.0,0.0,0.0,0.0,0.0,0.0,0.0,0.0,0.0,0.0,2.0295452353959986e-05,-0.006813697513427051,-9.810465853350461,0.0,0.0,0.0,0.0,0.0,0.0,0.0,0.0,0.0
1710484720.6271796,403,1710484720,627047539,map,0.00040424616659885665,6.447162618945216e-06,1.713340253386663e-08,0.999999918271732,0.0,0.0,0.0,0.0,0.0,0.0,0.0,0.0,0.0,-0.0,0.0,-0.0,0.0,0.0,0.0,0.0,0.0,0.0,0.0,0.0,0.0,1.888348498916128e-05,-0.00681451514912511,-9.810400660773336,0.0,0.0,0.0,0.0,0.0,0.0,0.0,0.0,0.0
1710484720.642868,404,1710484720,642663956,map,0.00040424616659885665,6.447162618945216e-06,1.713340253386663e-08,0.999999918271732,0.0,0.0,0.0,0.0,0.0,0.0,0.0,0.0,0.0,-0.0,0.0,-0.0,0.0,0.0,0.0,0.0,0.0,0.0,0.0,0.0,0.0,1.8968658631029732e-05,-0.006807551603271736,-9.810126386288138,0.0,0.0,0.0,0.0,0.0,0.0,0.0,0.0,0.0
1710484720.6610978,405,1710484720,660941362,map,0.00040424616659885665,6.447162618945216e-06,1.713340253386663e-08,0.999999918271732,0.0,0.0,0.0,0.0,0.0,0.0,0.0,0.0,0.0,-0.0,0.0,-0.0,0.0,0.0,0.0,0.0,0.0,0.0,0.0,0.0,0.0,1.8518838915381052e-05,-0.006823424786174168,-9.810868650344851,0.0,0.0,0.0,0.0,0.0,0.0,0.0,0.0,0.0
1710484720.6762938,406,1710484720,676176786,map,0.00040424616659885665,6.447162618945216e-06,1.713340253386663e-08,0.999999918271732,0.0,0.0,0.0,0.0,0.0,0.0,0.0,0.0,0.0,-0.0,0.0,-0.0,0.0,0.0,0.0,0.0,0.0,0.0,0.0,0.0,0.0,2.059318839784858e-05,-0.006809206428803012,-9.810477960543357,0.0,0.0,0.0,0.0,0.0,0.0,0.0,0.0,0.0
1710484720.6934187,407,1710484720,693290472,map,0.00040424616659885665,6.447162618945216e-06,1.713340253386663e-08,0.999999918271732,0.0,0.0,0.0,0.0,0.0,0.0,0.0,0.0,0.0,-0.0,0.0,-0.0,0.0,0.0,0.0,0.0,0.0,0.0,0.0,0.0,0.0,1.9453827846103465e-05,-0.006816936451279899,-9.810466319011727,0.0,0.0,0.0,0.0,0.0,0.0,0.0,0.0,0.0
1710484720.7101493,408,1710484720,710036993,map,0.00040424616659885665,6.447162618945216e-06,1.713340253386663e-08,0.999999918271732,0.0,0.0,0.0,0.0,0.0,0.0,0.0,0.0,0.0,-0.0,0.0,-0.0,0.0,0.0,0.0,0.0,0.0,0.0,0.0,0.0,0.0,1.9429008589522214e-05,-0.0068177277116328585,-9.810465853350461,0.0,0.0,0.0,0.0,0.0,0.0,0.0,0.0,0.0
1710484720.7261086,409,1710484720,725955486,map,0.00040424616659885665,6.447162618945216e-06,1.713340253386663e-08,0.999999918271732,0.0,0.0,0.0,0.0,0.0,0.0,0.0,0.0,0.0,-0.0,0.0,-0.0,0.0,0.0,0.0,0.0,0.0,0.0,0.0,0.0,0.0,1.8417061666923355e-05,-0.006810902863714918,-9.810465853350461,0.0,0.0,0.0,0.0,0.0,0.0,0.0,0.0,0.0
1710484720.743337,410,1710484720,743201017,map,0.00040424616659885665,6.447162618945216e-06,1.713340253386663e-08,0.999999918271732,0.0,0.0,0.0,0.0,0.0,0.0,0.0,0.0,0.0,-0.0,0.0,-0.0,0.0,0.0,0.0,0.0,0.0,0.0,0.0,0.0,0.0,1.968029912151547e-05,-0.006811104089408127,-9.80999274150503,0.0,0.0,0.0,0.0,0.0,0.0,0.0,0.0,0.0
1710484720.7592032,411,1710484720,759086132,map,0.00040424616659885665,6.447162618945216e-06,1.713340253386663e-08,0.999999918271732,0.0,0.0,0.0,0.0,0.0,0.0,0.0,0.0,0.0,-0.0,0.0,-0.0,0.0,0.0,0.0,0.0,0.0,0.0,0.0,0.0,0.0,1.9438562724329132e-05,-0.006812474470484934,-9.810935705567038,0.0,0.0,0.0,0.0,0.0,0.0,0.0,0.0,0.0
1710484720.7770295,412,1710484720,776913166,map,0.00040424616659885665,6.447162618945216e-06,1.713340253386663e-08,0.999999918271732,0.0,0.0,0.0,0.0,0.0,0.0,0.0,0.0,0.0,-0.0,0.0,-0.0,0.0,0.0,0.0,0.0,0.0,0.0,0.0,0.0,0.0,1.9655989679322917e-05,-0.006812885789444274,-9.810479823188418,0.0,0.0,0.0,0.0,0.0,0.0,0.0,0.0,0.0
1710484720.7929912,413,1710484720,792678118,map,0.00040424616659885665,6.447162618945216e-06,1.713340253386663e-08,0.999999918271732,0.0,0.0,0.0,0.0,0.0,0.0,0.0,0.0,0.0,-0.0,0.0,-0.0,0.0,0.0,0.0,0.0,0.0,0.0,0.0,0.0,0.0,1.9093790529924157e-05,-0.006813588374068023,-9.810466319011727,0.0,0.0,0.0,0.0,0.0,0.0,0.0,0.0,0.0
1710484720.8100445,414,1710484720,809837341,map,0.0004037059995732003,6.534144423168348e-06,1.7405085668283042e-08,0.999999918489382,0.0,0.0,0.0,0.0,0.0,0.0,0.0,0.0,0.0,-0.00010803341395503742,1.7396382933381382e-05,4.661709753445742e-08,0.0,0.0,0.0,0.0,0.0,0.0,0.0,0.0,0.0,1.8866977305836805e-05,-0.006806899268227874,-9.810466319011727,0.0,0.0,0.0,0.0,0.0,0.0,0.0,0.0,0.0
1710484720.8267589,415,1710484720,826611757,map,0.0004031658565777455,6.620821031827661e-06,1.7400397126976722e-08,0.999999918706725,0.0,0.0,0.0,0.0,0.0,0.0,0.0,0.0,0.0,-0.00010802860752541121,1.733532154117366e-05,-8.632593244148917e-09,0.0,0.0,0.0,0.0,0.0,0.0,0.0,0.0,0.0,-4.576389782921349e-05,-0.007258627984743191,-9.809991344521233,0.0,0.0,0.0,0.0,0.0,0.0,0.0,0.0,0.0
1710484720.8441525,416,1710484720,844013214,map,0.0004031658565777455,6.620821031827661e-06,1.7400397126976722e-08,0.999999918706725,0.0,0.0,0.0,0.0,0.0,0.0,0.0,0.0,0.0,-0.0,0.0,-0.0,0.0,0.0,0.0,0.0,0.0,0.0,0.0,0.0,0.0,8.419704255789914e-06,-0.006707710235511095,-9.810870047328647,0.0,0.0,0.0,0.0,0.0,0.0,0.0,0.0,0.0
1710484720.860498,417,1710484720,860234499,map,0.0004031658565777455,6.620821031827661e-06,1.7400397126976722e-08,0.999999918706725,0.0,0.0,0.0,0.0,0.0,0.0,0.0,0.0,0.0,-0.0,0.0,-0.0,0.0,0.0,0.0,0.0,0.0,0.0,0.0,0.0,0.0,9.459516809089286e-05,-0.0059173227700500645,-9.810074697887702,0.0,0.0,0.0,0.0,0.0,0.0,0.0,0.0,0.0
1710484720.8770456,418,1710484720,876901627,map,0.0004031658565777455,6.620821031827661e-06,1.7400397126976722e-08,0.999999918706725,0.0,0.0,0.0,0.0,0.0,0.0,0.0,0.0,0.0,-0.0,0.0,-0.0,0.0,0.0,0.0,0.0,0.0,0.0,0.0,0.0,0.0,2.8789824267146486e-05,-0.0066341896431695935,-9.810938499534629,0.0,0.0,0.0,0.0,0.0,0.0,0.0,0.0,0.0
1710484720.8933928,419,1710484720,893249989,map,0.0004031658565777455,6.620821031827661e-06,1.7400397126976722e-08,0.999999918706725,0.0,0.0,0.0,0.0,0.0,0.0,0.0,0.0,0.0,-0.0,0.0,-0.0,0.0,0.0,0.0,0.0,0.0,0.0,0.0,0.0,0.0,1.5438917410619278e-05,-0.006689063321273676,-9.810479823188418,0.0,0.0,0.0,0.0,0.0,0.0,0.0,0.0,0.0
1710484720.9098403,420,1710484720,909718275,map,0.0004031658565777455,6.620821031827661e-06,1.7400397126976722e-08,0.999999918706725,0.0,0.0,0.0,0.0,0.0,0.0,0.0,0.0,0.0,-0.0,0.0,-0.0,0.0,0.0,0.0,0.0,0.0,0.0,0.0,0.0,0.0,2.047835048634954e-05,-0.006716595543578036,-9.810466319011727,0.0,0.0,0.0,0.0,0.0,0.0,0.0,0.0,0.0
1710484720.926669,421,1710484720,926428318,map,0.0004031658565777455,6.620821031827661e-06,1.7400397126976722e-08,0.999999918706725,0.0,0.0,0.0,0.0,0.0,0.0,0.0,0.0,0.0,-0.0,0.0,-0.0,0.0,0.0,0.0,0.0,0.0,0.0,0.0,0.0,0.0,1.9424084528597276e-05,-0.006742747835111675,-9.810465853350461,0.0,0.0,0.0,0.0,0.0,0.0,0.0,0.0,0.0
1710484720.9433696,422,1710484720,943212748,map,0.0004031658565777455,6.620821031827661e-06,1.7400397126976722e-08,0.999999918706725,0.0,0.0,0.0,0.0,0.0,0.0,0.0,0.0,0.0,-0.0,0.0,-0.0,0.0,0.0,0.0,0.0,0.0,0.0,0.0,0.0,0.0,1.905808842368323e-05,-0.006753167005920301,-9.809992275843763,0.0,0.0,0.0,0.0,0.0,0.0,0.0,0.0,0.0
1710484720.958938,423,1710484720,958795071,map,0.0004031658565777455,6.620821031827661e-06,1.7400397126976722e-08,0.999999918706725,0.0,0.0,0.0,0.0,0.0,0.0,0.0,0.0,0.0,-0.0,0.0,-0.0,0.0,0.0,0.0,0.0,0.0,0.0,0.0,0.0,0.0,1.838962672502033e-05,-0.006763627331362228,-9.810526854976201,0.0,0.0,0.0,0.0,0.0,0.0,0.0,0.0,0.0
1710484720.975682,424,1710484720,975541830,map,0.0004031658565777455,6.620821031827661e-06,1.7400397126976722e-08,0.999999918706725,0.0,0.0,0.0,0.0,0.0,0.0,0.0,0.0,0.0,-0.0,0.0,-0.0,0.0,0.0,0.0,0.0,0.0,0.0,0.0,0.0,0.0,1.940406587614649e-05,-0.006788535661576601,-9.810880757537745,0.0,0.0,0.0,0.0,0.0,0.0,0.0,0.0,0.0
1710484720.9927874,425,1710484720,992650270,map,0.0004031658565777455,6.620821031827661e-06,1.7400397126976722e-08,0.999999918706725,0.0,0.0,0.0,0.0,0.0,0.0,0.0,0.0,0.0,-0.0,0.0,-0.0,0.0,0.0,0.0,0.0,0.0,0.0,0.0,0.0,0.0,2.060153016917019e-05,-0.0067905893005156615,-9.810477960543357,0.0,0.0,0.0,0.0,0.0,0.0,0.0,0.0,0.0
1710484721.0090637,426,1710484721,8952141,map,0.0004031658565777455,6.620821031827661e-06,1.7400397126976722e-08,0.999999918706725,0.0,0.0,0.0,0.0,0.0,0.0,0.0,0.0,0.0,-0.0,0.0,-0.0,0.0,0.0,0.0,0.0,0.0,0.0,0.0,0.0,0.0,1.9394422923501823e-05,-0.0067995921607672235,-9.810400660773336,0.0,0.0,0.0,0.0,0.0,0.0,0.0,0.0,0.0
1710484721.0261714,427,1710484721,26026964,map,0.0004031658565777455,6.620821031827661e-06,1.7400397126976722e-08,0.999999918706725,0.0,0.0,0.0,0.0,0.0,0.0,0.0,0.0,0.0,-0.0,0.0,-0.0,0.0,0.0,0.0,0.0,0.0,0.0,0.0,0.0,0.0,1.883088617746653e-05,-0.006801012336676587,-9.81006026238848,0.0,0.0,0.0,0.0,0.0,0.0,0.0,0.0,0.0
1710484721.0432348,428,1710484721,43086529,map,0.0004031658565777455,6.620821031827661e-06,1.7400397126976722e-08,0.999999918706725,0.0,0.0,0.0,0.0,0.0,0.0,0.0,0.0,0.0,-0.0,0.0,-0.0,0.0,0.0,0.0,0.0,0.0,0.0,0.0,0.0,0.0,1.7328540445507138e-05,-0.006803037553907567,-9.810937568212099,0.0,0.0,0.0,0.0,0.0,0.0,0.0,0.0,0.0
1710484721.0589566,429,1710484721,58816433,map,0.0004031658565777455,6.620821031827661e-06,1.7400397126976722e-08,0.999999918706725,0.0,0.0,0.0,0.0,0.0,0.0,0.0,0.0,0.0,-0.0,0.0,-0.0,0.0,0.0,0.0,0.0,0.0,0.0,0.0,0.0,0.0,2.1046551945223536e-05,-0.006811512225136162,-9.810479823188418,0.0,0.0,0.0,0.0,0.0,0.0,0.0,0.0,0.0
1710484721.0760887,430,1710484721,75893879,map,0.0004031658565777455,6.620821031827661e-06,1.7400397126976722e-08,0.999999918706725,0.0,0.0,0.0,0.0,0.0,0.0,0.0,0.0,0.0,-0.0,0.0,-0.0,0.0,0.0,0.0,0.0,0.0,0.0,0.0,0.0,0.0,1.910525691277786e-05,-0.006812917394383659,-9.810466319011727,0.0,0.0,0.0,0.0,0.0,0.0,0.0,0.0,0.0
1710484721.0940685,431,1710484721,93883038,map,0.0004031658565777455,6.620821031827661e-06,1.7400397126976722e-08,0.999999918706725,0.0,0.0,0.0,0.0,0.0,0.0,0.0,0.0,0.0,-0.0,0.0,-0.0,0.0,0.0,0.0,0.0,0.0,0.0,0.0,0.0,0.0,1.8688965930880333e-05,-0.0068067016805132986,-9.810465853350461,0.0,0.0,0.0,0.0,0.0,0.0,0.0,0.0,0.0
1710484721.1108632,432,1710484721,110711098,map,0.0004031658565777455,6.620821031827661e-06,1.7400397126976722e-08,0.999999918706725,0.0,0.0,0.0,0.0,0.0,0.0,0.0,0.0,0.0,-0.0,0.0,-0.0,0.0,0.0,0.0,0.0,0.0,0.0,0.0,0.0,0.0,1.9919227098672113e-05,-0.006814898728497364,-9.809992275843763,0.0,0.0,0.0,0.0,0.0,0.0,0.0,0.0,0.0
1710484721.1259859,433,1710484721,125836134,map,0.0004031658565777455,6.620821031827661e-06,1.7400397126976722e-08,0.999999918706725,0.0,0.0,0.0,0.0,0.0,0.0,0.0,0.0,0.0,-0.0,0.0,-0.0,0.0,0.0,0.0,0.0,0.0,0.0,0.0,0.0,0.0,2.0567727876478767e-05,-0.006816621993501697,-9.810527320637467,0.0,0.0,0.0,0.0,0.0,0.0,0.0,0.0,0.0
1710484721.1426716,434,1710484721,142489672,map,0.0004031658565777455,6.620821031827661e-06,1.7400397126976722e-08,0.999999918706725,0.0,0.0,0.0,0.0,0.0,0.0,0.0,0.0,0.0,-0.0,0.0,-0.0,0.0,0.0,0.0,0.0,0.0,0.0,0.0,0.0,0.0,1.762410400508433e-05,-0.0068105895428050385,-9.810880757537745,0.0,0.0,0.0,0.0,0.0,0.0,0.0,0.0,0.0
1710484721.1588638,435,1710484721,158635616,map,0.0004031658565777455,6.620821031827661e-06,1.7400397126976722e-08,0.999999918706725,0.0,0.0,0.0,0.0,0.0,0.0,0.0,0.0,0.0,-0.0,0.0,-0.0,0.0,0.0,0.0,0.0,0.0,0.0,0.0,0.0,0.0,1.9596741076115716e-05,-0.006811381257905327,-9.810477960543357,0.0,0.0,0.0,0.0,0.0,0.0,0.0,0.0,0.0
1710484721.1757898,436,1710484721,175586462,map,0.0004031658565777455,6.620821031827661e-06,1.7400397126976722e-08,0.999999918706725,0.0,0.0,0.0,0.0,0.0,0.0,0.0,0.0,0.0,-0.0,0.0,-0.0,0.0,0.0,0.0,0.0,0.0,0.0,0.0,0.0,0.0,2.2323160925289126e-05,-0.006805189190896089,-9.810400660773336,0.0,0.0,0.0,0.0,0.0,0.0,0.0,0.0,0.0
1710484721.192599,437,1710484721,192399740,map,0.0004031658565777455,6.620821031827661e-06,1.7400397126976722e-08,0.999999918706725,0.0,0.0,0.0,0.0,0.0,0.0,0.0,0.0,0.0,-0.0,0.0,-0.0,0.0,0.0,0.0,0.0,0.0,0.0,0.0,0.0,0.0,1.855983278839521e-05,-0.006820963693628066,-9.81006026238848,0.0,0.0,0.0,0.0,0.0,0.0,0.0,0.0,0.0
1710484721.2092452,438,1710484721,209040165,map,0.0004031658565777455,6.620821031827661e-06,1.7400397126976722e-08,0.999999918706725,0.0,0.0,0.0,0.0,0.0,0.0,0.0,0.0,0.0,-0.0,0.0,-0.0,0.0,0.0,0.0,0.0,0.0,0.0,0.0,0.0,0.0,1.7286955933871937e-05,-0.006808271695667662,-9.810937568212099,0.0,0.0,0.0,0.0,0.0,0.0,0.0,0.0,0.0
1710484721.2259557,439,1710484721,225732327,map,0.00040263311610046074,6.720340281159415e-06,1.7575047504664664e-08,0.9999999189207021,0.0,0.0,0.0,0.0,0.0,0.0,0.0,0.0,0.0,-0.00010654810393650813,1.9903863887593147e-05,2.6210686996280928e-08,0.0,0.0,0.0,0.0,0.0,0.0,0.0,0.0,0.0,2.0225511859444275e-05,-0.006808919937985561,-9.810479823188418,0.0,0.0,0.0,0.0,0.0,0.0,0.0,0.0,0.0
1710484721.242526,440,1710484721,242328405,map,0.0004020892477502564,6.819405129546598e-06,1.7592925813036373e-08,0.9999999191388629,0.0,0.0,0.0,0.0,0.0,0.0,0.0,0.0,0.0,-0.00010877367846464105,1.9812971131962745e-05,-5.121917530387372e-09,0.0,0.0,0.0,0.0,0.0,0.0,0.0,0.0,0.0,-6.64719401257719e-05,-0.007261402398199172,-9.810057002759626,0.0,0.0,0.0,0.0,0.0,0.0,0.0,0.0,0.0
1710484721.2595184,441,1710484721,259158850,map,0.0004020892477502564,6.819405129546598e-06,1.7592925813036373e-08,0.9999999191388629,0.0,0.0,0.0,0.0,0.0,0.0,0.0,0.0,0.0,-0.0,0.0,-0.0,0.0,0.0,0.0,0.0,0.0,0.0,0.0,0.0,0.0,3.8961952700959486e-05,-0.006710622892155179,-9.810393675854357,0.0,0.0,0.0,0.0,0.0,0.0,0.0,0.0,0.0
1710484721.2762046,442,1710484721,276040792,map,0.0004020892477502564,6.819405129546598e-06,1.7592925813036373e-08,0.9999999191388629,0.0,0.0,0.0,0.0,0.0,0.0,0.0,0.0,0.0,-0.0,0.0,-0.0,0.0,0.0,0.0,0.0,0.0,0.0,0.0,0.0,0.0,8.490847443748846e-05,-0.005913930354973582,-9.81047376959197,0.0,0.0,0.0,0.0,0.0,0.0,0.0,0.0,0.0
1710484721.2938843,443,1710484721,293763161,map,0.0004020892477502564,6.819405129546598e-06,1.7592925813036373e-08,0.9999999191388629,0.0,0.0,0.0,0.0,0.0,0.0,0.0,0.0,0.0,-0.0,0.0,-0.0,0.0,0.0,0.0,0.0,0.0,0.0,0.0,0.0,0.0,2.7084317501292937e-05,-0.006638052721731887,-9.810475166575765,0.0,0.0,0.0,0.0,0.0,0.0,0.0,0.0,0.0
1710484721.3090427,444,1710484721,308900833,map,0.0004020892477502564,6.819405129546598e-06,1.7592925813036373e-08,0.9999999191388629,0.0,0.0,0.0,0.0,0.0,0.0,0.0,0.0,0.0,-0.0,0.0,-0.0,0.0,0.0,0.0,0.0,0.0,0.0,0.0,0.0,0.0,1.7774969096110467e-05,-0.006686875531872477,-9.810950606727525,0.0,0.0,0.0,0.0,0.0,0.0,0.0,0.0,0.0
1710484721.325648,445,1710484721,325454235,map,0.0004020892477502564,6.819405129546598e-06,1.7592925813036373e-08,0.9999999191388629,0.0,0.0,0.0,0.0,0.0,0.0,0.0,0.0,0.0,-0.0,0.0,-0.0,0.0,0.0,0.0,0.0,0.0,0.0,0.0,0.0,0.0,2.013965343204676e-05,-0.0067145339465607135,-9.810479823188418,0.0,0.0,0.0,0.0,0.0,0.0,0.0,0.0,0.0
1710484721.342332,446,1710484721,342203856,map,0.0004020892477502564,6.819405129546598e-06,1.7592925813036373e-08,0.9999999191388629,0.0,0.0,0.0,0.0,0.0,0.0,0.0,0.0,0.0,-0.0,0.0,-0.0,0.0,0.0,0.0,0.0,0.0,0.0,0.0,0.0,0.0,1.755544870468088e-05,-0.006741316063145414,-9.810466319011727,0.0,0.0,0.0,0.0,0.0,0.0,0.0,0.0,0.0
1710484721.3590133,447,1710484721,358798504,map,0.0004020892477502564,6.819405129546598e-06,1.7592925813036373e-08,0.9999999191388629,0.0,0.0,0.0,0.0,0.0,0.0,0.0,0.0,0.0,-0.0,0.0,-0.0,0.0,0.0,0.0,0.0,0.0,0.0,0.0,0.0,0.0,2.1036424935363125e-05,-0.006767503370223407,-9.810465853350461,0.0,0.0,0.0,0.0,0.0,0.0,0.0,0.0,0.0
1710484721.375893,448,1710484721,375694752,map,0.0004020892477502564,6.819405129546598e-06,1.7592925813036373e-08,0.9999999191388629,0.0,0.0,0.0,0.0,0.0,0.0,0.0,0.0,0.0,-0.0,0.0,-0.0,0.0,0.0,0.0,0.0,0.0,0.0,0.0,0.0,0.0,1.6105739531997285e-05,-0.00677090465287281,-9.810465853350461,0.0,0.0,0.0,0.0,0.0,0.0,0.0,0.0,0.0
1710484721.393211,449,1710484721,392993689,map,0.0004020892477502564,6.819405129546598e-06,1.7592925813036373e-08,0.9999999191388629,0.0,0.0,0.0,0.0,0.0,0.0,0.0,0.0,0.0,-0.0,0.0,-0.0,0.0,0.0,0.0,0.0,0.0,0.0,0.0,0.0,0.0,2.1604073947286308e-05,-0.006780673080253227,-9.809991810182499,0.0,0.0,0.0,0.0,0.0,0.0,0.0,0.0,0.0
1710484721.4096026,450,1710484721,409487009,map,0.0004020892477502564,6.819405129546598e-06,1.7592925813036373e-08,0.9999999191388629,0.0,0.0,0.0,0.0,0.0,0.0,0.0,0.0,0.0,-0.0,0.0,-0.0,0.0,0.0,0.0,0.0,0.0,0.0,0.0,0.0,0.0,1.8018259805457454e-05,-0.0068058733582530015,-9.810461662399074,0.0,0.0,0.0,0.0,0.0,0.0,0.0,0.0,0.0
1710484721.4259157,451,1710484721,425714493,map,0.0004020892477502564,6.819405129546598e-06,1.7592925813036373e-08,0.9999999191388629,0.0,0.0,0.0,0.0,0.0,0.0,0.0,0.0,0.0,-0.0,0.0,-0.0,0.0,0.0,0.0,0.0,0.0,0.0,0.0,0.0,0.0,2.0668156870159396e-05,-0.006793960342467667,-9.810949675404995,0.0,0.0,0.0,0.0,0.0,0.0,0.0,0.0,0.0
1710484721.4433486,452,1710484721,443213463,map,0.0004020892477502564,6.819405129546598e-06,1.7592925813036373e-08,0.9999999191388629,0.0,0.0,0.0,0.0,0.0,0.0,0.0,0.0,0.0,-0.0,0.0,-0.0,0.0,0.0,0.0,0.0,0.0,0.0,0.0,0.0,0.0,1.9280553126434275e-05,-0.006810233020898878,-9.810479823188418,0.0,0.0,0.0,0.0,0.0,0.0,0.0,0.0,0.0
1710484721.4599302,453,1710484721,459804296,map,0.0004020892477502564,6.819405129546598e-06,1.7592925813036373e-08,0.9999999191388629,0.0,0.0,0.0,0.0,0.0,0.0,0.0,0.0,0.0,-0.0,0.0,-0.0,0.0,0.0,0.0,0.0,0.0,0.0,0.0,0.0,0.0,1.9595465651965606e-05,-0.006812465375538348,-9.810466319011727,0.0,0.0,0.0,0.0,0.0,0.0,0.0,0.0,0.0
1710484721.4760704,454,1710484721,475839853,map,0.0004020892477502564,6.819405129546598e-06,1.7592925813036373e-08,0.9999999191388629,0.0,0.0,0.0,0.0,0.0,0.0,0.0,0.0,0.0,-0.0,0.0,-0.0,0.0,0.0,0.0,0.0,0.0,0.0,0.0,0.0,0.0,1.9154859010626882e-05,-0.0068142379806279095,-9.810400660773336,0.0,0.0,0.0,0.0,0.0,0.0,0.0,0.0,0.0
1710484721.492581,455,1710484721,492384434,map,0.0004020892477502564,6.819405129546598e-06,1.7592925813036373e-08,0.9999999191388629,0.0,0.0,0.0,0.0,0.0,0.0,0.0,0.0,0.0,-0.0,0.0,-0.0,0.0,0.0,0.0,0.0,0.0,0.0,0.0,0.0,0.0,1.7739837200387904e-05,-0.006815778209832205,-9.81006026238848,0.0,0.0,0.0,0.0,0.0,0.0,0.0,0.0,0.0
1710484721.5089645,456,1710484721,508834600,map,0.0004020892477502564,6.819405129546598e-06,1.7592925813036373e-08,0.9999999191388629,0.0,0.0,0.0,0.0,0.0,0.0,0.0,0.0,0.0,-0.0,0.0,-0.0,0.0,0.0,0.0,0.0,0.0,0.0,0.0,0.0,0.0,2.0019399408801642e-05,-0.006818134937866235,-9.810937568212099,0.0,0.0,0.0,0.0,0.0,0.0,0.0,0.0,0.0
1710484721.5262406,457,1710484721,526079655,map,0.0004020892477502564,6.819405129546598e-06,1.7592925813036373e-08,0.9999999191388629,0.0,0.0,0.0,0.0,0.0,0.0,0.0,0.0,0.0,-0.0,0.0,-0.0,0.0,0.0,0.0,0.0,0.0,0.0,0.0,0.0,0.0,1.8157211759905996e-05,-0.006812140458571573,-9.810479823188418,0.0,0.0,0.0,0.0,0.0,0.0,0.0,0.0,0.0
1710484721.5425842,458,1710484721,542292833,map,0.0004020892477502564,6.819405129546598e-06,1.7592925813036373e-08,0.9999999191388629,0.0,0.0,0.0,0.0,0.0,0.0,0.0,0.0,0.0,-0.0,0.0,-0.0,0.0,0.0,0.0,0.0,0.0,0.0,0.0,0.0,0.0,1.9980346205542355e-05,-0.0068208597838633235,-9.80999274150503,0.0,0.0,0.0,0.0,0.0,0.0,0.0,0.0,0.0
1710484721.5597644,459,1710484721,559636593,map,0.0004020892477502564,6.819405129546598e-06,1.7592925813036373e-08,0.9999999191388629,0.0,0.0,0.0,0.0,0.0,0.0,0.0,0.0,0.0,-0.0,0.0,-0.0,0.0,0.0,0.0,0.0,0.0,0.0,0.0,0.0,0.0,1.9615081071433e-05,-0.00681571090722747,-9.810526854976201,0.0,0.0,0.0,0.0,0.0,0.0,0.0,0.0,0.0
1710484721.576241,460,1710484721,576116085,map,0.0004020892477502564,6.819405129546598e-06,1.7592925813036373e-08,0.9999999191388629,0.0,0.0,0.0,0.0,0.0,0.0,0.0,0.0,0.0,-0.0,0.0,-0.0,0.0,0.0,0.0,0.0,0.0,0.0,0.0,0.0,0.0,1.8971732616394306e-05,-0.006824991618097227,-9.810880757537745,0.0,0.0,0.0,0.0,0.0,0.0,0.0,0.0,0.0
1710484721.592586,461,1710484721,592393875,map,0.0004010088897292369,7.039479715022414e-06,1.7807963433911147e-08,0.9999999195711547,0.0,0.0,0.0,0.0,0.0,0.0,0.0,0.0,0.0,-0.0002160716210203273,4.401493401489024e-05,2.3883666356342767e-08,0.0,0.0,0.0,0.0,0.0,0.0,0.0,0.0,0.0,1.8472026585815806e-05,-0.0068117632456619285,-9.810477960543357,0.0,0.0,0.0,0.0,0.0,0.0,0.0,0.0,0.0
1710484721.6093712,462,1710484721,609236717,map,0.0004010088897292369,7.039479715022414e-06,1.7807963433911147e-08,0.9999999195711547,0.0,0.0,0.0,0.0,0.0,0.0,0.0,0.0,0.0,-0.0,0.0,-0.0,0.0,0.0,0.0,0.0,0.0,0.0,0.0,0.0,0.0,-0.0001738415053717301,-0.007723163977666886,-9.809991810182499,0.0,0.0,0.0,0.0,0.0,0.0,0.0,0.0,0.0
1710484721.62595,463,1710484721,625797272,map,0.0004010088897292369,7.039479715022414e-06,1.7807963433911147e-08,0.9999999195711547,0.0,0.0,0.0,0.0,0.0,0.0,0.0,0.0,0.0,-0.0,0.0,-0.0,0.0,0.0,0.0,0.0,0.0,0.0,0.0,0.0,0.0,0.00021800186575212188,-0.005562784244365644,-9.810871444312442,0.0,0.0,0.0,0.0,0.0,0.0,0.0,0.0,0.0
1710484721.642725,464,1710484721,642560720,map,0.0004010088897292369,7.039479715022414e-06,1.7807963433911147e-08,0.9999999195711547,0.0,0.0,0.0,0.0,0.0,0.0,0.0,0.0,0.0,-0.0,0.0,-0.0,0.0,0.0,0.0,0.0,0.0,0.0,0.0,0.0,0.0,1.9059645400379012e-05,-0.006522394104990317,-9.810548741055666,0.0,0.0,0.0,0.0,0.0,0.0,0.0,0.0,0.0
1710484721.6591284,465,1710484721,658904314,map,0.0004010088897292369,7.039479715022414e-06,1.7807963433911147e-08,0.9999999195711547,0.0,0.0,0.0,0.0,0.0,0.0,0.0,0.0,0.0,-0.0,0.0,-0.0,0.0,0.0,0.0,0.0,0.0,0.0,0.0,0.0,0.0,2.0837687917967366e-05,-0.006677037755524343,-9.810468647318054,0.0,0.0,0.0,0.0,0.0,0.0,0.0,0.0,0.0
1710484721.6763694,466,1710484721,676241398,map,0.0004010088897292369,7.039479715022414e-06,1.7807963433911147e-08,0.9999999195711547,0.0,0.0,0.0,0.0,0.0,0.0,0.0,0.0,0.0,-0.0,0.0,-0.0,0.0,0.0,0.0,0.0,0.0,0.0,0.0,0.0,0.0,1.999971115870729e-05,-0.006708909176844761,-9.810465853350461,0.0,0.0,0.0,0.0,0.0,0.0,0.0,0.0,0.0
1710484721.6931014,467,1710484721,692960024,map,0.0004010088897292369,7.039479715022414e-06,1.7807963433911147e-08,0.9999999195711547,0.0,0.0,0.0,0.0,0.0,0.0,0.0,0.0,0.0,-0.0,0.0,-0.0,0.0,0.0,0.0,0.0,0.0,0.0,0.0,0.0,0.0,2.0223304736176153e-05,-0.00674363436503012,-9.809991810182499,0.0,0.0,0.0,0.0,0.0,0.0,0.0,0.0,0.0
1710484721.7097573,468,1710484721,709629536,map,0.0004010088897292369,7.039479715022414e-06,1.7807963433911147e-08,0.9999999195711547,0.0,0.0,0.0,0.0,0.0,0.0,0.0,0.0,0.0,-0.0,0.0,-0.0,0.0,0.0,0.0,0.0,0.0,0.0,0.0,0.0,0.0,1.6357032728525676e-05,-0.006756141053453839,-9.81046119673781,0.0,0.0,0.0,0.0,0.0,0.0,0.0,0.0,0.0
1710484721.7272558,469,1710484721,727146387,map,0.0004010088897292369,7.039479715022414e-06,1.7807963433911147e-08,0.9999999195711547,0.0,0.0,0.0,0.0,0.0,0.0,0.0,0.0,0.0,-0.0,0.0,-0.0,0.0,0.0,0.0,0.0,0.0,0.0,0.0,0.0,0.0,2.1385553644709806e-05,-0.006775185871604384,-9.810949209743729,0.0,0.0,0.0,0.0,0.0,0.0,0.0,0.0,0.0
1710484721.7430568,470,1710484721,742932796,map,0.0004010088897292369,7.039479715022414e-06,1.7807963433911147e-08,0.9999999195711547,0.0,0.0,0.0,0.0,0.0,0.0,0.0,0.0,0.0,-0.0,0.0,-0.0,0.0,0.0,0.0,0.0,0.0,0.0,0.0,0.0,0.0,1.8143602202627353e-05,-0.00678594928614128,-9.810479357527152,0.0,0.0,0.0,0.0,0.0,0.0,0.0,0.0,0.0
1710484721.759169,471,1710484721,759032011,map,0.0004010088897292369,7.039479715022414e-06,1.7807963433911147e-08,0.9999999195711547,0.0,0.0,0.0,0.0,0.0,0.0,0.0,0.0,0.0,-0.0,0.0,-0.0,0.0,0.0,0.0,0.0,0.0,0.0,0.0,0.0,0.0,1.932214385531812e-05,-0.0067965824155683365,-9.810465853350461,0.0,0.0,0.0,0.0,0.0,0.0,0.0,0.0,0.0
1710484721.7762716,472,1710484721,776034832,map,0.0004010088897292369,7.039479715022414e-06,1.7807963433911147e-08,0.9999999195711547,0.0,0.0,0.0,0.0,0.0,0.0,0.0,0.0,0.0,-0.0,0.0,-0.0,0.0,0.0,0.0,0.0,0.0,0.0,0.0,0.0,0.0,2.0360812512582858e-05,-0.006799267243800448,-9.809992275843763,0.0,0.0,0.0,0.0,0.0,0.0,0.0,0.0,0.0
1710484721.7928324,473,1710484721,792700291,map,0.0004010088897292369,7.039479715022414e-06,1.7807963433911147e-08,0.9999999195711547,0.0,0.0,0.0,0.0,0.0,0.0,0.0,0.0,0.0,-0.0,0.0,-0.0,0.0,0.0,0.0,0.0,0.0,0.0,0.0,0.0,0.0,1.7561882668847593e-05,-0.006817180877969391,-9.810526389314937,0.0,0.0,0.0,0.0,0.0,0.0,0.0,0.0,0.0
1710484721.809033,474,1710484721,808834314,map,0.0004010088897292369,7.039479715022414e-06,1.7807963433911147e-08,0.9999999195711547,0.0,0.0,0.0,0.0,0.0,0.0,0.0,0.0,0.0,-0.0,0.0,-0.0,0.0,0.0,0.0,0.0,0.0,0.0,0.0,0.0,0.0,2.1360644682112428e-05,-0.006820209949929773,-9.810880291876481,0.0,0.0,0.0,0.0,0.0,0.0,0.0,0.0,0.0
1710484721.8258321,475,1710484721,825629950,map,0.0004010088897292369,7.039479715022414e-06,1.7807963433911147e-08,0.9999999195711547,0.0,0.0,0.0,0.0,0.0,0.0,0.0,0.0,0.0,-0.0,0.0,-0.0,0.0,0.0,0.0,0.0,0.0,0.0,0.0,0.0,0.0,1.6225357175434917e-05,-0.006807410858973322,-9.810411370982434,0.0,0.0,0.0,0.0,0.0,0.0,0.0,0.0,0.0
1710484721.8441727,476,1710484721,844048500,map,0.0004010088897292369,7.039479715022414e-06,1.7807963433911147e-08,0.9999999195711547,0.0,0.0,0.0,0.0,0.0,0.0,0.0,0.0,0.0,-0.0,0.0,-0.0,0.0,0.0,0.0,0.0,0.0,0.0,0.0,0.0,0.0,2.0533087143398967e-05,-0.0068241651148262476,-9.810060728049747,0.0,0.0,0.0,0.0,0.0,0.0,0.0,0.0,0.0
1710484721.859016,477,1710484721,858890772,map,0.0004010088897292369,7.039479715022414e-06,1.7807963433911147e-08,0.9999999195711547,0.0,0.0,0.0,0.0,0.0,0.0,0.0,0.0,0.0,-0.0,0.0,-0.0,0.0,0.0,0.0,0.0,0.0,0.0,0.0,0.0,0.0,1.896714339871769e-05,-0.006812647501843728,-9.810937102550835,0.0,0.0,0.0,0.0,0.0,0.0,0.0,0.0,0.0
1710484721.8761327,478,1710484721,876000166,map,0.0004010088897292369,7.039479715022414e-06,1.7807963433911147e-08,0.9999999195711547,0.0,0.0,0.0,0.0,0.0,0.0,0.0,0.0,0.0,-0.0,0.0,-0.0,0.0,0.0,0.0,0.0,0.0,0.0,0.0,0.0,0.0,1.9843985955599397e-05,-0.006829272609455136,-9.810479357527152,0.0,0.0,0.0,0.0,0.0,0.0,0.0,0.0,0.0
1710484721.8928485,479,1710484721,892714977,map,0.0003999211050934328,7.277672297085687e-06,1.7830956605469138e-08,0.9999999200050692,0.0,0.0,0.0,0.0,0.0,0.0,0.0,0.0,0.0,-0.00021755694364395157,4.76385177059928e-05,-1.5984503302739473e-08,0.0,0.0,0.0,0.0,0.0,0.0,0.0,0.0,0.0,1.8706518111976763e-05,-0.006816752051237873,-9.80999274150503,0.0,0.0,0.0,0.0,0.0,0.0,0.0,0.0,0.0
1710484721.9100642,480,1710484721,909887552,map,0.0003999211050934328,7.277672297085687e-06,1.7830956605469138e-08,0.9999999200050692,0.0,0.0,0.0,0.0,0.0,0.0,0.0,0.0,0.0,-0.0,0.0,-0.0,0.0,0.0,0.0,0.0,0.0,0.0,0.0,0.0,0.0,-0.00016813333037705885,-0.007736758649075924,-9.81046119673781,0.0,0.0,0.0,0.0,0.0,0.0,0.0,0.0,0.0
1710484721.9260817,481,1710484721,925938845,map,0.0003999211050934328,7.277672297085687e-06,1.7830956605469138e-08,0.9999999200050692,0.0,0.0,0.0,0.0,0.0,0.0,0.0,0.0,0.0,-0.0,0.0,-0.0,0.0,0.0,0.0,0.0,0.0,0.0,0.0,0.0,0.0,0.00021164684998503154,-0.005561563929907502,-9.810476563559561,0.0,0.0,0.0,0.0,0.0,0.0,0.0,0.0,0.0
1710484721.9432702,482,1710484721,943138838,map,0.0003999211050934328,7.277672297085687e-06,1.7830956605469138e-08,0.9999999200050692,0.0,0.0,0.0,0.0,0.0,0.0,0.0,0.0,0.0,-0.0,0.0,-0.0,0.0,0.0,0.0,0.0,0.0,0.0,0.0,0.0,0.0,1.5933685169418802e-05,-0.006521717440964338,-9.810541290475422,0.0,0.0,0.0,0.0,0.0,0.0,0.0,0.0,0.0
1710484721.959416,483,1710484721,959294796,map,0.0003999211050934328,7.277672297085687e-06,1.7830956605469138e-08,0.9999999200050692,0.0,0.0,0.0,0.0,0.0,0.0,0.0,0.0,0.0,-0.0,0.0,-0.0,0.0,0.0,0.0,0.0,0.0,0.0,0.0,0.0,0.0,2.1475075807914566e-05,-0.006677345164718941,-9.810881223199011,0.0,0.0,0.0,0.0,0.0,0.0,0.0,0.0,0.0
1710484721.9765468,484,1710484721,976341248,map,0.0003999211050934328,7.277672297085687e-06,1.7830956605469138e-08,0.9999999200050692,0.0,0.0,0.0,0.0,0.0,0.0,0.0,0.0,0.0,-0.0,0.0,-0.0,0.0,0.0,0.0,0.0,0.0,0.0,0.0,0.0,0.0,1.9947250902839433e-05,-0.00671702027758359,-9.810478426204622,0.0,0.0,0.0,0.0,0.0,0.0,0.0,0.0,0.0
1710484721.9928086,485,1710484721,992680788,map,0.0003999211050934328,7.277672297085687e-06,1.7830956605469138e-08,0.9999999200050692,0.0,0.0,0.0,0.0,0.0,0.0,0.0,0.0,0.0,-0.0,0.0,-0.0,0.0,0.0,0.0,0.0,0.0,0.0,0.0,0.0,0.0,1.8557640764159504e-05,-0.006752464421296552,-9.80999367282756,0.0,0.0,0.0,0.0,0.0,0.0,0.0,0.0,0.0
1710484722.0094306,486,1710484722,9316444,map,0.0003999211050934328,7.277672297085687e-06,1.7830956605469138e-08,0.9999999200050692,0.0,0.0,0.0,0.0,0.0,0.0,0.0,0.0,0.0,-0.0,0.0,-0.0,0.0,0.0,0.0,0.0,0.0,0.0,0.0,0.0,0.0,1.918652434614201e-05,-0.006765761915325901,-9.810870512989911,0.0,0.0,0.0,0.0,0.0,0.0,0.0,0.0,0.0
1710484722.0262153,487,1710484722,26016474,map,0.0003999211050934328,7.277672297085687e-06,1.7830956605469138e-08,0.9999999200050692,0.0,0.0,0.0,0.0,0.0,0.0,0.0,0.0,0.0,-0.0,0.0,-0.0,0.0,0.0,0.0,0.0,0.0,0.0,0.0,0.0,0.0,2.002637072088675e-05,-0.0067773215924363805,-9.810548741055666,0.0,0.0,0.0,0.0,0.0,0.0,0.0,0.0,0.0
1710484722.0423963,488,1710484722,42302847,map,0.0003999211050934328,7.277672297085687e-06,1.7830956605469138e-08,0.9999999200050692,0.0,0.0,0.0,0.0,0.0,0.0,0.0,0.0,0.0,-0.0,0.0,-0.0,0.0,0.0,0.0,0.0,0.0,0.0,0.0,0.0,0.0,1.7183472494751032e-05,-0.006788514970573118,-9.81006026238848,0.0,0.0,0.0,0.0,0.0,0.0,0.0,0.0,0.0
1710484722.0590377,489,1710484722,58910608,map,0.0003999211050934328,7.277672297085687e-06,1.7830956605469138e-08,0.9999999200050692,0.0,0.0,0.0,0.0,0.0,0.0,0.0,0.0,0.0,-0.0,0.0,-0.0,0.0,0.0,0.0,0.0,0.0,0.0,0.0,0.0,0.0,2.2886745632956803e-05,-0.006807439962802396,-9.810393675854357,0.0,0.0,0.0,0.0,0.0,0.0,0.0,0.0,0.0
1710484722.0755992,490,1710484722,75461626,map,0.0003999211050934328,7.277672297085687e-06,1.7830956605469138e-08,0.9999999200050692,0.0,0.0,0.0,0.0,0.0,0.0,0.0,0.0,0.0,-0.0,0.0,-0.0,0.0,0.0,0.0,0.0,0.0,0.0,0.0,0.0,0.0,1.6320935382906757e-05,-0.006811473798986838,-9.810882154521542,0.0,0.0,0.0,0.0,0.0,0.0,0.0,0.0,0.0
1710484722.0921676,491,1710484722,92042685,map,0.0003999211050934328,7.277672297085687e-06,1.7830956605469138e-08,0.9999999200050692,0.0,0.0,0.0,0.0,0.0,0.0,0.0,0.0,0.0,-0.0,0.0,-0.0,0.0,0.0,0.0,0.0,0.0,0.0,0.0,0.0,0.0,1.9312738046300243e-05,-0.006814459442577272,-9.810549206716932,0.0,0.0,0.0,0.0,0.0,0.0,0.0,0.0,0.0
1710484722.109691,492,1710484722,109516144,map,0.0003999211050934328,7.277672297085687e-06,1.7830956605469138e-08,0.9999999200050692,0.0,0.0,0.0,0.0,0.0,0.0,0.0,0.0,0.0,-0.0,0.0,-0.0,0.0,0.0,0.0,0.0,0.0,0.0,0.0,0.0,0.0,1.960498248328067e-05,-0.006817569914309596,-9.810469112979318,0.0,0.0,0.0,0.0,0.0,0.0,0.0,0.0,0.0
1710484722.1256163,493,1710484722,125483036,map,0.0003999211050934328,7.277672297085687e-06,1.7830956605469138e-08,0.9999999200050692,0.0,0.0,0.0,0.0,0.0,0.0,0.0,0.0,0.0,-0.0,0.0,-0.0,0.0,0.0,0.0,0.0,0.0,0.0,0.0,0.0,0.0,1.8936667334050056e-05,-0.006820376614825956,-9.80999274150503,0.0,0.0,0.0,0.0,0.0,0.0,0.0,0.0,0.0
1710484722.1430953,494,1710484722,142757893,map,0.0003988482216155598,7.530728751801138e-06,1.7825044897280305e-08,0.9999999204316888,0.0,0.0,0.0,0.0,0.0,0.0,0.0,0.0,0.0,-0.0002145767116155753,5.061128965137936e-05,-2.2930185321235472e-08,0.0,0.0,0.0,0.0,0.0,0.0,0.0,0.0,0.0,1.9069168448942715e-05,-0.006823762890813493,-9.81046212806034,0.0,0.0,0.0,0.0,0.0,0.0,0.0,0.0,0.0
1710484722.1589735,495,1710484722,158772469,map,0.0003988482216155598,7.530728751801138e-06,1.7825044897280305e-08,0.9999999204316888,0.0,0.0,0.0,0.0,0.0,0.0,0.0,0.0,0.0,-0.0,0.0,-0.0,0.0,0.0,0.0,0.0,0.0,0.0,0.0,0.0,0.0,-0.0001881829145280203,-0.007722206734538736,-9.8104747009145,0.0,0.0,0.0,0.0,0.0,0.0,0.0,0.0,0.0
1710484722.17559,496,1710484722,175442219,map,0.0003988482216155598,7.530728751801138e-06,1.7825044897280305e-08,0.9999999204316888,0.0,0.0,0.0,0.0,0.0,0.0,0.0,0.0,0.0,-0.0,0.0,-0.0,0.0,0.0,0.0,0.0,0.0,0.0,0.0,0.0,0.0,0.00023922513322004912,-0.005591812358009694,-9.810477029220827,0.0,0.0,0.0,0.0,0.0,0.0,0.0,0.0,0.0
1710484722.19217,497,1710484722,192050934,map,0.0003988482216155598,7.530728751801138e-06,1.7825044897280305e-08,0.9999999204316888,0.0,0.0,0.0,0.0,0.0,0.0,0.0,0.0,0.0,-0.0,0.0,-0.0,0.0,0.0,0.0,0.0,0.0,0.0,0.0,0.0,0.0,1.3999738036690297e-05,-0.006538719534111725,-9.810950606727525,0.0,0.0,0.0,0.0,0.0,0.0,0.0,0.0,0.0
1710484722.2089717,498,1710484722,208852291,map,0.0003988482216155598,7.530728751801138e-06,1.7825044897280305e-08,0.9999999204316888,0.0,0.0,0.0,0.0,0.0,0.0,0.0,0.0,0.0,-0.0,0.0,-0.0,0.0,0.0,0.0,0.0,0.0,0.0,0.0,0.0,0.0,2.2100279666879026e-05,-0.00668629936700627,-9.810479823188418,0.0,0.0,0.0,0.0,0.0,0.0,0.0,0.0,0.0
1710484722.2258613,499,1710484722,225731611,map,0.0003988482216155598,7.530728751801138e-06,1.7825044897280305e-08,0.9999999204316888,0.0,0.0,0.0,0.0,0.0,0.0,0.0,0.0,0.0,-0.0,0.0,-0.0,0.0,0.0,0.0,0.0,0.0,0.0,0.0,0.0,0.0,2.1315230345313385e-05,-0.006733576945721941,-9.80999274150503,0.0,0.0,0.0,0.0,0.0,0.0,0.0,0.0,0.0
1710484722.2438114,500,1710484722,243645668,map,0.0003988482216155598,7.530728751801138e-06,1.7825044897280305e-08,0.9999999204316888,0.0,0.0,0.0,0.0,0.0,0.0,0.0,0.0,0.0,-0.0,0.0,-0.0,0.0,0.0,0.0,0.0,0.0,0.0,0.0,0.0,0.0,1.9102326812310444e-05,-0.006748019948273764,-9.810461662399074,0.0,0.0,0.0,0.0,0.0,0.0,0.0,0.0,0.0
1710484722.2587206,501,1710484722,258537531,map,0.0003988482216155598,7.530728751801138e-06,1.7825044897280305e-08,0.9999999204316888,0.0,0.0,0.0,0.0,0.0,0.0,0.0,0.0,0.0,-0.0,0.0,-0.0,0.0,0.0,0.0,0.0,0.0,0.0,0.0,0.0,0.0,1.6872594519499556e-05,-0.006775779544242768,-9.810540824814158,0.0,0.0,0.0,0.0,0.0,0.0,0.0,0.0,0.0
1710484722.2755573,502,1710484722,275333405,map,0.0003988482216155598,7.530728751801138e-06,1.7825044897280305e-08,0.9999999204316888,0.0,0.0,0.0,0.0,0.0,0.0,0.0,0.0,0.0,-0.0,0.0,-0.0,0.0,0.0,0.0,0.0,0.0,0.0,0.0,0.0,0.0,2.0888786596382495e-05,-0.006788677315369674,-9.810881223199011,0.0,0.0,0.0,0.0,0.0,0.0,0.0,0.0,0.0
1710484722.2943099,503,1710484722,294126749,map,0.0003988482216155598,7.530728751801138e-06,1.7825044897280305e-08,0.9999999204316888,0.0,0.0,0.0,0.0,0.0,0.0,0.0,0.0,0.0,-0.0,0.0,-0.0,0.0,0.0,0.0,0.0,0.0,0.0,0.0,0.0,0.0,1.803330199445903e-05,-0.006800392743440433,-9.810477494882091,0.0,0.0,0.0,0.0,0.0,0.0,0.0,0.0,0.0
1710484722.3090794,504,1710484722,308959484,map,0.0003988482216155598,7.530728751801138e-06,1.7825044897280305e-08,0.9999999204316888,0.0,0.0,0.0,0.0,0.0,0.0,0.0,0.0,0.0,-0.0,0.0,-0.0,0.0,0.0,0.0,0.0,0.0,0.0,0.0,0.0,0.0,1.8579656929781318e-05,-0.006819210187926335,-9.809992275843763,0.0,0.0,0.0,0.0,0.0,0.0,0.0,0.0,0.0
1710484722.3259654,505,1710484722,325792789,map,0.0003988482216155598,7.530728751801138e-06,1.7825044897280305e-08,0.9999999204316888,0.0,0.0,0.0,0.0,0.0,0.0,0.0,0.0,0.0,-0.0,0.0,-0.0,0.0,0.0,0.0,0.0,0.0,0.0,0.0,0.0,0.0,1.9184752430278868e-05,-0.006808892425772139,-9.810461662399074,0.0,0.0,0.0,0.0,0.0,0.0,0.0,0.0,0.0
1710484722.344175,506,1710484722,343505383,map,0.0003988482216155598,7.530728751801138e-06,1.7825044897280305e-08,0.9999999204316888,0.0,0.0,0.0,0.0,0.0,0.0,0.0,0.0,0.0,-0.0,0.0,-0.0,0.0,0.0,0.0,0.0,0.0,0.0,0.0,0.0,0.0,1.9550116152188126e-05,-0.006827261716765028,-9.810475166575765,0.0,0.0,0.0,0.0,0.0,0.0,0.0,0.0,0.0
1710484722.3590229,507,1710484722,358804464,map,0.0003977641859752667,7.796198455633704e-06,1.807950555728995e-08,0.9999999208614325,0.0,0.0,0.0,0.0,0.0,0.0,0.0,0.0,0.0,-0.00021680714453251718,5.309396002702131e-05,2.8140542643680394e-08,0.0,0.0,0.0,0.0,0.0,0.0,0.0,0.0,0.0,1.7528309526177566e-05,-0.006831614558200964,-9.810949675404995,0.0,0.0,0.0,0.0,0.0,0.0,0.0,0.0,0.0
1710484722.3760035,508,1710484722,375877619,map,0.0003977641859752667,7.796198455633704e-06,1.807950555728995e-08,0.9999999208614325,0.0,0.0,0.0,0.0,0.0,0.0,0.0,0.0,0.0,-0.0,0.0,-0.0,0.0,0.0,0.0,0.0,0.0,0.0,0.0,0.0,0.0,-0.0001944824315810133,-0.007722552342508995,-9.810004848697924,0.0,0.0,0.0,0.0,0.0,0.0,0.0,0.0,0.0
1710484722.3926675,509,1710484722,392544270,map,0.0003977641859752667,7.796198455633704e-06,1.807950555728995e-08,0.9999999208614325,0.0,0.0,0.0,0.0,0.0,0.0,0.0,0.0,0.0,-0.0,0.0,-0.0,0.0,0.0,0.0,0.0,0.0,0.0,0.0,0.0,0.0,0.00024198201758757123,-0.005585513652751738,-9.810463525044137,0.0,0.0,0.0,0.0,0.0,0.0,0.0,0.0,0.0
1710484722.40931,510,1710484722,409178972,map,0.0003977641859752667,7.796198455633704e-06,1.807950555728995e-08,0.9999999208614325,0.0,0.0,0.0,0.0,0.0,0.0,0.0,0.0,0.0,-0.0,0.0,-0.0,0.0,0.0,0.0,0.0,0.0,0.0,0.0,0.0,0.0,1.4788908061838415e-05,-0.006532732103400666,-9.810475632237031,0.0,0.0,0.0,0.0,0.0,0.0,0.0,0.0,0.0
1710484722.4257846,511,1710484722,425645113,map,0.0003977641859752667,7.796198455633704e-06,1.807950555728995e-08,0.9999999208614325,0.0,0.0,0.0,0.0,0.0,0.0,0.0,0.0,0.0,-0.0,0.0,-0.0,0.0,0.0,0.0,0.0,0.0,0.0,0.0,0.0,0.0,2.1753298572849177e-05,-0.006696276978158159,-9.810475632237031,0.0,0.0,0.0,0.0,0.0,0.0,0.0,0.0,0.0
1710484722.442446,512,1710484722,442203283,map,0.0003977641859752667,7.796198455633704e-06,1.807950555728995e-08,0.9999999208614325,0.0,0.0,0.0,0.0,0.0,0.0,0.0,0.0,0.0,-0.0,0.0,-0.0,0.0,0.0,0.0,0.0,0.0,0.0,0.0,0.0,0.0,1.9300434111236543e-05,-0.006722926990643701,-9.810884017166602,0.0,0.0,0.0,0.0,0.0,0.0,0.0,0.0,0.0
1710484722.4595969,513,1710484722,459475279,map,0.0003977641859752667,7.796198455633704e-06,1.807950555728995e-08,0.9999999208614325,0.0,0.0,0.0,0.0,0.0,0.0,0.0,0.0,0.0,-0.0,0.0,-0.0,0.0,0.0,0.0,0.0,0.0,0.0,0.0,0.0,0.0,1.8468254492246504e-05,-0.006766749853898778,-9.810548741055666,0.0,0.0,0.0,0.0,0.0,0.0,0.0,0.0,0.0
1710484722.4757998,514,1710484722,475587130,map,0.0003977641859752667,7.796198455633704e-06,1.807950555728995e-08,0.9999999208614325,0.0,0.0,0.0,0.0,0.0,0.0,0.0,0.0,0.0,-0.0,0.0,-0.0,0.0,0.0,0.0,0.0,0.0,0.0,0.0,0.0,0.0,1.918028844575348e-05,-0.0067804391127523084,-9.81006026238848,0.0,0.0,0.0,0.0,0.0,0.0,0.0,0.0,0.0
1710484722.4944067,515,1710484722,494138956,map,0.0003977641859752667,7.796198455633704e-06,1.807950555728995e-08,0.9999999208614325,0.0,0.0,0.0,0.0,0.0,0.0,0.0,0.0,0.0,-0.0,0.0,-0.0,0.0,0.0,0.0,0.0,0.0,0.0,0.0,0.0,0.0,1.840231257678636e-05,-0.006793542884419381,-9.810393675854357,0.0,0.0,0.0,0.0,0.0,0.0,0.0,0.0,0.0
1710484722.5095763,516,1710484722,509359837,map,0.0003977641859752667,7.796198455633704e-06,1.807950555728995e-08,0.9999999208614325,0.0,0.0,0.0,0.0,0.0,0.0,0.0,0.0,0.0,-0.0,0.0,-0.0,0.0,0.0,0.0,0.0,0.0,0.0,0.0,0.0,0.0,1.8658375291202e-05,-0.0067988243199017225,-9.81047283826944,0.0,0.0,0.0,0.0,0.0,0.0,0.0,0.0,0.0
1710484722.5255666,517,1710484722,525439978,map,0.0003977641859752667,7.796198455633704e-06,1.807950555728995e-08,0.9999999208614325,0.0,0.0,0.0,0.0,0.0,0.0,0.0,0.0,0.0,-0.0,0.0,-0.0,0.0,0.0,0.0,0.0,0.0,0.0,0.0,0.0,0.0,2.0510173917615862e-05,-0.006818877767628626,-9.81095014106626,0.0,0.0,0.0,0.0,0.0,0.0,0.0,0.0,0.0
1710484722.5420349,518,1710484722,541909695,map,0.0003972314458163312,7.934559427140582e-06,1.8013850332047315e-08,0.9999999210721073,0.0,0.0,0.0,0.0,0.0,0.0,0.0,0.0,0.0,-0.00010654803950870036,2.767218849951958e-05,-2.4953980125275246e-08,0.0,0.0,0.0,0.0,0.0,0.0,0.0,0.0,0.0,1.6227264538500628e-05,-0.00682342978839479,-9.810414164950025,0.0,0.0,0.0,0.0,0.0,0.0,0.0,0.0,0.0
1710484722.5591884,519,1710484722,559014082,map,0.0003972314458163312,7.934559427140582e-06,1.8013850332047315e-08,0.9999999210721073,0.0,0.0,0.0,0.0,0.0,0.0,0.0,0.0,0.0,-0.0,0.0,-0.0,0.0,0.0,0.0,0.0,0.0,0.0,0.0,0.0,0.0,-9.530899927334674e-05,-0.007279012033778486,-9.810059796727217,0.0,0.0,0.0,0.0,0.0,0.0,0.0,0.0,0.0
1710484722.5757785,520,1710484722,575609446,map,0.0003972314458163312,7.934559427140582e-06,1.8013850332047315e-08,0.9999999210721073,0.0,0.0,0.0,0.0,0.0,0.0,0.0,0.0,0.0,-0.0,0.0,-0.0,0.0,0.0,0.0,0.0,0.0,0.0,0.0,0.0,0.0,0.000143293414766749,-0.008018946874670764,-9.810528717621263,0.0,0.0,0.0,0.0,0.0,0.0,0.0,0.0,0.0
1710484722.5929186,521,1710484722,592784166,map,0.0003972314458163312,7.934559427140582e-06,1.8013850332047315e-08,0.9999999210721073,0.0,0.0,0.0,0.0,0.0,0.0,0.0,0.0,0.0,-0.0,0.0,-0.0,0.0,0.0,0.0,0.0,0.0,0.0,0.0,0.0,0.0,1.1242338525709204e-05,-0.010067106335787173,-9.81087842923142,0.0,0.0,0.0,0.0,0.0,0.0,0.0,0.0,0.0
1710484722.6089535,522,1710484722,608791828,map,0.0003972314458163312,7.934559427140582e-06,1.8013850332047315e-08,0.9999999210721073,0.0,0.0,0.0,0.0,0.0,0.0,0.0,0.0,0.0,-0.0,0.0,-0.0,0.0,0.0,0.0,0.0,0.0,0.0,0.0,0.0,0.0,1.6452914693002626e-05,-0.010602925109444949,-9.810475632237031,0.0,0.0,0.0,0.0,0.0,0.0,0.0,0.0,0.0
1710484722.6254892,523,1710484722,625364780,map,0.0003972314458163312,7.934559427140582e-06,1.8013850332047315e-08,0.9999999210721073,0.0,0.0,0.0,0.0,0.0,0.0,0.0,0.0,0.0,-0.0,0.0,-0.0,0.0,0.0,0.0,0.0,0.0,0.0,0.0,0.0,0.0,2.6029310802773828e-05,-0.011600522515595287,-9.81046305938287,0.0,0.0,0.0,0.0,0.0,0.0,0.0,0.0,0.0
1710484722.642346,524,1710484722,642191648,map,0.0003972314458163312,7.934559427140582e-06,1.8013850332047315e-08,0.9999999210721073,0.0,0.0,0.0,0.0,0.0,0.0,0.0,0.0,0.0,-0.0,0.0,-0.0,0.0,0.0,0.0,0.0,0.0,0.0,0.0,0.0,0.0,1.373150283761083e-05,-0.010641383091082762,-9.81046305938287,0.0,0.0,0.0,0.0,0.0,0.0,0.0,0.0,0.0
1710484722.6587632,525,1710484722,658633709,map,0.0003972314458163312,7.934559427140582e-06,1.8013850332047315e-08,0.9999999210721073,0.0,0.0,0.0,0.0,0.0,0.0,0.0,0.0,0.0,-0.0,0.0,-0.0,0.0,0.0,0.0,0.0,0.0,0.0,0.0,0.0,0.0,1.7486999461661018e-05,-0.010342495861435506,-9.81046305938287,0.0,0.0,0.0,0.0,0.0,0.0,0.0,0.0,0.0
1710484722.6756306,526,1710484722,675510883,map,0.00039843476193668207,8.218561048921251e-06,1.88699713383951e-08,0.9999999205910945,0.0,0.0,0.0,0.0,0.0,0.0,0.0,0.0,0.0,0.00024066324291174837,5.6800384497838514e-05,1.5050252235111434e-07,0.0,0.0,0.0,0.0,0.0,0.0,0.0,0.0,0.0,2.3762939819622926e-05,-0.01104540199154592,-9.810462593721606,0.0,0.0,0.0,0.0,0.0,0.0,0.0,0.0,0.0
1710484722.692494,527,1710484722,692295790,map,0.0003996901847657123,8.498189782641134e-06,1.9419760963264172e-08,0.9999999200877652,0.0,0.0,0.0,0.0,0.0,0.0,0.0,0.0,0.0,0.00025108458610310057,5.5925782316020745e-05,8.96684998747373e-08,0.0,0.0,0.0,0.0,0.0,0.0,0.0,0.0,0.0,-0.00021856795512281417,-0.009140525228435954,-9.81039833246701,0.0,0.0,0.0,0.0,0.0,0.0,0.0,0.0,0.0
1710484722.7089012,528,1710484722,708786726,map,0.00040082637441247765,8.775405103604575e-06,2.027411646646268e-08,0.9999999196306015,0.0,0.0,0.0,0.0,0.0,0.0,0.0,0.0,0.0,0.00022723794732165494,5.5443124592840166e-05,1.5057915732989075e-07,0.0,0.0,0.0,0.0,0.0,0.0,0.0,0.0,0.0,2.805595267187157e-05,-0.009778673974613895,-9.810532908572648,0.0,0.0,0.0,0.0,0.0,0.0,0.0,0.0,0.0
1710484722.7254868,529,1710484722,725374699,map,0.00040082637441247765,8.775405103604575e-06,2.027411646646268e-08,0.9999999196306015,0.0,0.0,0.0,0.0,0.0,0.0,0.0,0.0,0.0,-0.0,0.0,-0.0,0.0,0.0,0.0,0.0,0.0,0.0,0.0,0.0,0.0,1.3340395487473926e-05,-0.009697939952761575,-9.810874703941298,0.0,0.0,0.0,0.0,0.0,0.0,0.0,0.0,0.0
1710484722.7418952,530,1710484722,741776705,map,0.00040082637441247765,8.775405103604575e-06,2.027411646646268e-08,0.9999999196306015,0.0,0.0,0.0,0.0,0.0,0.0,0.0,0.0,0.0,-0.0,0.0,-0.0,0.0,0.0,0.0,0.0,0.0,0.0,0.0,0.0,0.0,0.0002728834593019057,-0.01014447386316078,-9.810062590694807,0.0,0.0,0.0,0.0,0.0,0.0,0.0,0.0,0.0
1710484722.7584949,531,1710484722,758373976,map,0.00040082637441247765,8.775405103604575e-06,2.027411646646268e-08,0.9999999196306015,0.0,0.0,0.0,0.0,0.0,0.0,0.0,0.0,0.0,-0.0,0.0,-0.0,0.0,0.0,0.0,0.0,0.0,0.0,0.0,0.0,0.0,2.085572504445792e-05,-0.00855364833414048,-9.810452814835037,0.0,0.0,0.0,0.0,0.0,0.0,0.0,0.0,0.0
1710484722.7756264,532,1710484722,775349379,map,0.00040082637441247765,8.775405103604575e-06,2.027411646646268e-08,0.9999999196306015,0.0,0.0,0.0,0.0,0.0,0.0,0.0,0.0,0.0,-0.0,0.0,-0.0,0.0,0.0,0.0,0.0,0.0,0.0,0.0,0.0,0.0,2.01936076039456e-05,-0.0080126302068933,-9.810464456366667,0.0,0.0,0.0,0.0,0.0,0.0,0.0,0.0,0.0
1710484722.7924638,533,1710484722,792312384,map,0.00040082637441247765,8.775405103604575e-06,2.027411646646268e-08,0.9999999196306015,0.0,0.0,0.0,0.0,0.0,0.0,0.0,0.0,0.0,-0.0,0.0,-0.0,0.0,0.0,0.0,0.0,0.0,0.0,0.0,0.0,0.0,2.0622613747495616e-05,-0.007669195928869077,-9.810465853350461,0.0,0.0,0.0,0.0,0.0,0.0,0.0,0.0,0.0
1710484722.810383,534,1710484722,810267925,map,0.00040082637441247765,8.775405103604575e-06,2.027411646646268e-08,0.9999999196306015,0.0,0.0,0.0,0.0,0.0,0.0,0.0,0.0,0.0,-0.0,0.0,-0.0,0.0,0.0,0.0,0.0,0.0,0.0,0.0,0.0,0.0,1.717072713503371e-05,-0.007398220180798807,-9.810465853350461,0.0,0.0,0.0,0.0,0.0,0.0,0.0,0.0,0.0
1710484722.826688,535,1710484722,826535225,map,0.00040082637441247765,8.775405103604575e-06,2.027411646646268e-08,0.9999999196306015,0.0,0.0,0.0,0.0,0.0,0.0,0.0,0.0,0.0,-0.0,0.0,-0.0,0.0,0.0,0.0,0.0,0.0,0.0,0.0,0.0,0.0,1.8686631798104228e-05,-0.0071944981521251325,-9.810465387689197,0.0,0.0,0.0,0.0,0.0,0.0,0.0,0.0,0.0
1710484722.8433843,536,1710484722,843241930,map,0.00040082637441247765,8.775405103604575e-06,2.027411646646268e-08,0.9999999196306015,0.0,0.0,0.0,0.0,0.0,0.0,0.0,0.0,0.0,-0.0,0.0,-0.0,0.0,0.0,0.0,0.0,0.0,0.0,0.0,0.0,0.0,2.1250758365068027e-05,-0.0070194038320720705,-9.810465387689197,0.0,0.0,0.0,0.0,0.0,0.0,0.0,0.0,0.0
1710484722.8600683,537,1710484722,859956503,map,0.00040082637441247765,8.775405103604575e-06,2.027411646646268e-08,0.9999999196306015,0.0,0.0,0.0,0.0,0.0,0.0,0.0,0.0,0.0,-0.0,0.0,-0.0,0.0,0.0,0.0,0.0,0.0,0.0,0.0,0.0,0.0,1.8553936172146894e-05,-0.00687860541872552,-9.810465387689197,0.0,0.0,0.0,0.0,0.0,0.0,0.0,0.0,0.0
1710484722.8763795,538,1710484722,876263618,map,0.00040082637441247765,8.775405103604575e-06,2.027411646646268e-08,0.9999999196306015,0.0,0.0,0.0,0.0,0.0,0.0,0.0,0.0,0.0,-0.0,0.0,-0.0,0.0,0.0,0.0,0.0,0.0,0.0,0.0,0.0,0.0,2.5219746869810423e-05,-0.006778933216971374,-9.810465853350461,0.0,0.0,0.0,0.0,0.0,0.0,0.0,0.0,0.0
1710484722.8942208,539,1710484722,894102335,map,0.00040082637441247765,8.775405103604575e-06,2.027411646646268e-08,0.9999999196306015,0.0,0.0,0.0,0.0,0.0,0.0,0.0,0.0,0.0,-0.0,0.0,-0.0,0.0,0.0,0.0,0.0,0.0,0.0,0.0,0.0,0.0,2.351802552020184e-05,-0.006682650929183399,-9.810466319011727,0.0,0.0,0.0,0.0,0.0,0.0,0.0,0.0,0.0
1710484722.9096577,540,1710484722,909508467,map,0.00040082637441247765,8.775405103604575e-06,2.027411646646268e-08,0.9999999196306015,0.0,0.0,0.0,0.0,0.0,0.0,0.0,0.0,0.0,-0.0,0.0,-0.0,0.0,0.0,0.0,0.0,0.0,0.0,0.0,0.0,0.0,2.3882064079971848e-05,-0.006618236879484536,-9.810465853350461,0.0,0.0,0.0,0.0,0.0,0.0,0.0,0.0,0.0
1710484722.9267511,541,1710484722,926612616,map,0.00040082637441247765,8.775405103604575e-06,2.027411646646268e-08,0.9999999196306015,0.0,0.0,0.0,0.0,0.0,0.0,0.0,0.0,0.0,-0.0,0.0,-0.0,0.0,0.0,0.0,0.0,0.0,0.0,0.0,0.0,0.0,2.407863394212647e-05,-0.006570675311061725,-9.80999274150503,0.0,0.0,0.0,0.0,0.0,0.0,0.0,0.0,0.0
1710484722.9428651,542,1710484722,942634106,map,0.00040082637441247765,8.775405103604575e-06,2.027411646646268e-08,0.9999999196306015,0.0,0.0,0.0,0.0,0.0,0.0,0.0,0.0,0.0,-0.0,0.0,-0.0,0.0,0.0,0.0,0.0,0.0,0.0,0.0,0.0,0.0,2.3515650531220368e-05,-0.006525665329903544,-9.810936171228304,0.0,0.0,0.0,0.0,0.0,0.0,0.0,0.0,0.0
1710484722.9602501,543,1710484722,960100651,map,0.00040082637441247765,8.775405103604575e-06,2.027411646646268e-08,0.9999999196306015,0.0,0.0,0.0,0.0,0.0,0.0,0.0,0.0,0.0,-0.0,0.0,-0.0,0.0,0.0,0.0,0.0,0.0,0.0,0.0,0.0,0.0,2.296876002433644e-05,-0.006488175732703449,-9.810479823188418,0.0,0.0,0.0,0.0,0.0,0.0,0.0,0.0,0.0
1710484722.976194,544,1710484722,976058722,map,0.00040082637441247765,8.775405103604575e-06,2.027411646646268e-08,0.9999999196306015,0.0,0.0,0.0,0.0,0.0,0.0,0.0,0.0,0.0,-0.0,0.0,-0.0,0.0,0.0,0.0,0.0,0.0,0.0,0.0,0.0,0.0,2.4139807227877743e-05,-0.006466909246475672,-9.810466319011727,0.0,0.0,0.0,0.0,0.0,0.0,0.0,0.0,0.0
1710484722.9936202,545,1710484722,993445635,map,0.00040082637441247765,8.775405103604575e-06,2.027411646646268e-08,0.9999999196306015,0.0,0.0,0.0,0.0,0.0,0.0,0.0,0.0,0.0,-0.0,0.0,-0.0,0.0,0.0,0.0,0.0,0.0,0.0,0.0,0.0,0.0,2.3150150029840975e-05,-0.0064392121782644455,-9.810465853350461,0.0,0.0,0.0,0.0,0.0,0.0,0.0,0.0,0.0
1710484723.0088043,546,1710484723,8667707,map,0.00040082637441247765,8.775405103604575e-06,2.027411646646268e-08,0.9999999196306015,0.0,0.0,0.0,0.0,0.0,0.0,0.0,0.0,0.0,-0.0,0.0,-0.0,0.0,0.0,0.0,0.0,0.0,0.0,0.0,0.0,0.0,2.2640246823310234e-05,-0.006434184491791847,-9.810465853350461,0.0,0.0,0.0,0.0,0.0,0.0,0.0,0.0,0.0
1710484723.0254903,547,1710484723,25307655,map,0.00040082637441247765,8.775405103604575e-06,2.027411646646268e-08,0.9999999196306015,0.0,0.0,0.0,0.0,0.0,0.0,0.0,0.0,0.0,-0.0,0.0,-0.0,0.0,0.0,0.0,0.0,0.0,0.0,0.0,0.0,0.0,2.196673760692792e-05,-0.00641516945959137,-9.810466319011727,0.0,0.0,0.0,0.0,0.0,0.0,0.0,0.0,0.0
1710484723.0425894,548,1710484723,42389631,map,0.00040082637441247765,8.775405103604575e-06,2.027411646646268e-08,0.9999999196306015,0.0,0.0,0.0,0.0,0.0,0.0,0.0,0.0,0.0,-0.0,0.0,-0.0,0.0,0.0,0.0,0.0,0.0,0.0,0.0,0.0,0.0,2.3557716435536183e-05,-0.006403633429342015,-9.810466319011727,0.0,0.0,0.0,0.0,0.0,0.0,0.0,0.0,0.0
1710484723.0588129,549,1710484723,58657885,map,0.00040082637441247765,8.775405103604575e-06,2.027411646646268e-08,0.9999999196306015,0.0,0.0,0.0,0.0,0.0,0.0,0.0,0.0,0.0,-0.0,0.0,-0.0,0.0,0.0,0.0,0.0,0.0,0.0,0.0,0.0,0.0,2.1721971633295883e-05,-0.006407411924901061,-9.810465853350461,0.0,0.0,0.0,0.0,0.0,0.0,0.0,0.0,0.0
1710484723.0756724,550,1710484723,75077057,map,0.00040082637441247765,8.775405103604575e-06,2.027411646646268e-08,0.9999999196306015,0.0,0.0,0.0,0.0,0.0,0.0,0.0,0.0,0.0,-0.0,0.0,-0.0,0.0,0.0,0.0,0.0,0.0,0.0,0.0,0.0,0.0,2.276293445530974e-05,-0.006396777203858353,-9.810465853350461,0.0,0.0,0.0,0.0,0.0,0.0,0.0,0.0,0.0
1710484723.0930088,551,1710484723,92867613,map,0.00040082637441247765,8.775405103604575e-06,2.027411646646268e-08,0.9999999196306015,0.0,0.0,0.0,0.0,0.0,0.0,0.0,0.0,0.0,-0.0,0.0,-0.0,0.0,0.0,0.0,0.0,0.0,0.0,0.0,0.0,0.0,2.2155572323592778e-05,-0.006393090112512493,-9.80999274150503,0.0,0.0,0.0,0.0,0.0,0.0,0.0,0.0,0.0
1710484723.1098127,552,1710484723,109679937,map,0.00040082637441247765,8.775405103604575e-06,2.027411646646268e-08,0.9999999196306015,0.0,0.0,0.0,0.0,0.0,0.0,0.0,0.0,0.0,-0.0,0.0,-0.0,0.0,0.0,0.0,0.0,0.0,0.0,0.0,0.0,0.0,2.1458459766828034e-05,-0.006398111432522481,-9.810936171228304,0.0,0.0,0.0,0.0,0.0,0.0,0.0,0.0,0.0
1710484723.1253097,553,1710484723,125162840,map,0.00040082637441247765,8.775405103604575e-06,2.027411646646268e-08,0.9999999196306015,0.0,0.0,0.0,0.0,0.0,0.0,0.0,0.0,0.0,-0.0,0.0,-0.0,0.0,0.0,0.0,0.0,0.0,0.0,0.0,0.0,0.0,2.1334861751991576e-05,-0.006394937750911387,-9.810480288849682,0.0,0.0,0.0,0.0,0.0,0.0,0.0,0.0,0.0
1710484723.1429906,554,1710484723,142864943,map,0.00040082637441247765,8.775405103604575e-06,2.027411646646268e-08,0.9999999196306015,0.0,0.0,0.0,0.0,0.0,0.0,0.0,0.0,0.0,-0.0,0.0,-0.0,0.0,0.0,0.0,0.0,0.0,0.0,0.0,0.0,0.0,2.271947766365474e-05,-0.006399380632318522,-9.810466319011727,0.0,0.0,0.0,0.0,0.0,0.0,0.0,0.0,0.0
1710484723.1585445,555,1710484723,158398867,map,0.00040082637441247765,8.775405103604575e-06,2.027411646646268e-08,0.9999999196306015,0.0,0.0,0.0,0.0,0.0,0.0,0.0,0.0,0.0,-0.0,0.0,-0.0,0.0,0.0,0.0,0.0,0.0,0.0,0.0,0.0,0.0,2.1441067457839557e-05,-0.006396579843517442,-9.810465853350461,0.0,0.0,0.0,0.0,0.0,0.0,0.0,0.0,0.0
1710484723.1757627,556,1710484723,175550938,map,0.00040082637441247765,8.775405103604575e-06,2.027411646646268e-08,0.9999999196306015,0.0,0.0,0.0,0.0,0.0,0.0,0.0,0.0,0.0,-0.0,0.0,-0.0,0.0,0.0,0.0,0.0,0.0,0.0,0.0,0.0,0.0,2.1140325818321458e-05,-0.006401087299045336,-9.810465853350461,0.0,0.0,0.0,0.0,0.0,0.0,0.0,0.0,0.0
1710484723.192943,557,1710484723,192825317,map,0.00040082637441247765,8.775405103604575e-06,2.027411646646268e-08,0.9999999196306015,0.0,0.0,0.0,0.0,0.0,0.0,0.0,0.0,0.0,-0.0,0.0,-0.0,0.0,0.0,0.0,0.0,0.0,0.0,0.0,0.0,0.0,2.107622154392439e-05,-0.006405739364223943,-9.810465853350461,0.0,0.0,0.0,0.0,0.0,0.0,0.0,0.0,0.0
1710484723.2097027,558,1710484723,209590197,map,0.00040082637441247765,8.775405103604575e-06,2.027411646646268e-08,0.9999999196306015,0.0,0.0,0.0,0.0,0.0,0.0,0.0,0.0,0.0,-0.0,0.0,-0.0,0.0,0.0,0.0,0.0,0.0,0.0,0.0,0.0,0.0,2.085981865859988e-05,-0.006409998527710047,-9.80999274150503,0.0,0.0,0.0,0.0,0.0,0.0,0.0,0.0,0.0
1710484723.2259424,559,1710484723,225791693,map,0.00040082637441247765,8.775405103604575e-06,2.027411646646268e-08,0.9999999196306015,0.0,0.0,0.0,0.0,0.0,0.0,0.0,0.0,0.0,-0.0,0.0,-0.0,0.0,0.0,0.0,0.0,0.0,0.0,0.0,0.0,0.0,2.0920754800724354e-05,-0.006415187876858207,-9.810935705567038,0.0,0.0,0.0,0.0,0.0,0.0,0.0,0.0,0.0
1710484723.244091,560,1710484723,243926287,map,0.00040082637441247765,8.775405103604575e-06,2.027411646646268e-08,0.9999999196306015,0.0,0.0,0.0,0.0,0.0,0.0,0.0,0.0,0.0,-0.0,0.0,-0.0,0.0,0.0,0.0,0.0,0.0,0.0,0.0,0.0,0.0,2.0797131916893324e-05,-0.006411944846279396,-9.810480288849682,0.0,0.0,0.0,0.0,0.0,0.0,0.0,0.0,0.0
1710484723.2584534,561,1710484723,258346796,map,0.00040082637441247765,8.775405103604575e-06,2.027411646646268e-08,0.9999999196306015,0.0,0.0,0.0,0.0,0.0,0.0,0.0,0.0,0.0,-0.0,0.0,-0.0,0.0,0.0,0.0,0.0,0.0,0.0,0.0,0.0,0.0,2.0743461073896915e-05,-0.00641630837427757,-9.810466319011727,0.0,0.0,0.0,0.0,0.0,0.0,0.0,0.0,0.0
1710484723.2753375,562,1710484723,275128126,map,0.00040082637441247765,8.775405103604575e-06,2.027411646646268e-08,0.9999999196306015,0.0,0.0,0.0,0.0,0.0,0.0,0.0,0.0,0.0,-0.0,0.0,-0.0,0.0,0.0,0.0,0.0,0.0,0.0,0.0,0.0,0.0,2.0717256259046743e-05,-0.006428233213493466,-9.810465853350461,0.0,0.0,0.0,0.0,0.0,0.0,0.0,0.0,0.0
1710484723.2942905,563,1710484723,294155836,map,0.00040082637441247765,8.775405103604575e-06,2.027411646646268e-08,0.9999999196306015,0.0,0.0,0.0,0.0,0.0,0.0,0.0,0.0,0.0,-0.0,0.0,-0.0,0.0,0.0,0.0,0.0,0.0,0.0,0.0,0.0,0.0,2.0544809321625398e-05,-0.0064179495573889675,-9.810465853350461,0.0,0.0,0.0,0.0,0.0,0.0,0.0,0.0,0.0
1710484723.3087108,564,1710484723,308578253,map,0.00040082637441247765,8.775405103604575e-06,2.027411646646268e-08,0.9999999196306015,0.0,0.0,0.0,0.0,0.0,0.0,0.0,0.0,0.0,-0.0,0.0,-0.0,0.0,0.0,0.0,0.0,0.0,0.0,0.0,0.0,0.0,2.056154970768478e-05,-0.006422105493231322,-9.810465853350461,0.0,0.0,0.0,0.0,0.0,0.0,0.0,0.0,0.0
1710484723.3252177,565,1710484723,325076580,map,0.00040082637441247765,8.775405103604575e-06,2.027411646646268e-08,0.9999999196306015,0.0,0.0,0.0,0.0,0.0,0.0,0.0,0.0,0.0,-0.0,0.0,-0.0,0.0,0.0,0.0,0.0,0.0,0.0,0.0,0.0,0.0,2.009149551223958e-05,-0.006426631366026053,-9.810465853350461,0.0,0.0,0.0,0.0,0.0,0.0,0.0,0.0,0.0
1710484723.342195,566,1710484723,342019320,map,0.00040082637441247765,8.775405103604575e-06,2.027411646646268e-08,0.9999999196306015,0.0,0.0,0.0,0.0,0.0,0.0,0.0,0.0,0.0,-0.0,0.0,-0.0,0.0,0.0,0.0,0.0,0.0,0.0,0.0,0.0,0.0,2.0380724583628342e-05,-0.006423387653326247,-9.809993207166293,0.0,0.0,0.0,0.0,0.0,0.0,0.0,0.0,0.0
1710484723.3587174,567,1710484723,358487606,map,0.00040082637441247765,8.775405103604575e-06,2.027411646646268e-08,0.9999999196306015,0.0,0.0,0.0,0.0,0.0,0.0,0.0,0.0,0.0,-0.0,0.0,-0.0,0.0,0.0,0.0,0.0,0.0,0.0,0.0,0.0,0.0,1.9377955208204337e-05,-0.0064358090766257255,-9.810936636889569,0.0,0.0,0.0,0.0,0.0,0.0,0.0,0.0,0.0
1710484723.3754756,568,1710484723,375287771,map,0.00040082637441247765,8.775405103604575e-06,2.027411646646268e-08,0.9999999196306015,0.0,0.0,0.0,0.0,0.0,0.0,0.0,0.0,0.0,-0.0,0.0,-0.0,0.0,0.0,0.0,0.0,0.0,0.0,0.0,0.0,0.0,1.9968781234888747e-05,-0.0064326644988437045,-9.810480754510948,0.0,0.0,0.0,0.0,0.0,0.0,0.0,0.0,0.0
1710484723.3928177,569,1710484723,392677307,map,0.00040082637441247765,8.775405103604575e-06,2.027411646646268e-08,0.9999999196306015,0.0,0.0,0.0,0.0,0.0,0.0,0.0,0.0,0.0,-0.0,0.0,-0.0,0.0,0.0,0.0,0.0,0.0,0.0,0.0,0.0,0.0,2.0286531490336238e-05,-0.006436921161219497,-9.810467250334257,0.0,0.0,0.0,0.0,0.0,0.0,0.0,0.0,0.0
1710484723.4087858,570,1710484723,408663273,map,0.00040082637441247765,8.775405103604575e-06,2.027411646646268e-08,0.9999999196306015,0.0,0.0,0.0,0.0,0.0,0.0,0.0,0.0,0.0,-0.0,0.0,-0.0,0.0,0.0,0.0,0.0,0.0,0.0,0.0,0.0,0.0,2.0204577495086272e-05,-0.0064413390315235216,-9.810466784672993,0.0,0.0,0.0,0.0,0.0,0.0,0.0,0.0,0.0
1710484723.426083,571,1710484723,425863504,map,0.00040082637441247765,8.775405103604575e-06,2.027411646646268e-08,0.9999999196306015,0.0,0.0,0.0,0.0,0.0,0.0,0.0,0.0,0.0,-0.0,0.0,-0.0,0.0,0.0,0.0,0.0,0.0,0.0,0.0,0.0,0.0,1.848088882966664e-05,-0.006445693009827781,-9.810466784672993,0.0,0.0,0.0,0.0,0.0,0.0,0.0,0.0,0.0
1710484723.4429142,572,1710484723,442815304,map,0.00040082637441247765,8.775405103604575e-06,2.027411646646268e-08,0.9999999196306015,0.0,0.0,0.0,0.0,0.0,0.0,0.0,0.0,0.0,-0.0,0.0,-0.0,0.0,0.0,0.0,0.0,0.0,0.0,0.0,0.0,0.0,2.0081771735362558e-05,-0.00644999651117849,-9.810466784672993,0.0,0.0,0.0,0.0,0.0,0.0,0.0,0.0,0.0
1710484723.4595788,573,1710484723,459421396,map,0.00040082637441247765,8.775405103604575e-06,2.027411646646268e-08,0.9999999196306015,0.0,0.0,0.0,0.0,0.0,0.0,0.0,0.0,0.0,-0.0,0.0,-0.0,0.0,0.0,0.0,0.0,0.0,0.0,0.0,0.0,0.0,1.9606829894305896e-05,-0.006454236575276763,-9.810466784672993,0.0,0.0,0.0,0.0,0.0,0.0,0.0,0.0,0.0
1710484723.4752066,574,1710484723,475072861,map,0.00040082637441247765,8.775405103604575e-06,2.027411646646268e-08,0.9999999196306015,0.0,0.0,0.0,0.0,0.0,0.0,0.0,0.0,0.0,-0.0,0.0,-0.0,0.0,0.0,0.0,0.0,0.0,0.0,0.0,0.0,0.0,1.5967612251172264e-05,-0.0064506968220655915,-9.809993207166293,0.0,0.0,0.0,0.0,0.0,0.0,0.0,0.0,0.0
1710484723.4922273,575,1710484723,492067099,map,0.00040082637441247765,8.775405103604575e-06,2.027411646646268e-08,0.9999999196306015,0.0,0.0,0.0,0.0,0.0,0.0,0.0,0.0,0.0,-0.0,0.0,-0.0,0.0,0.0,0.0,0.0,0.0,0.0,0.0,0.0,0.0,1.4808913835702728e-05,-0.006470235268442078,-9.810936636889569,0.0,0.0,0.0,0.0,0.0,0.0,0.0,0.0,0.0
1710484723.509589,576,1710484723,509471416,map,0.00040082637441247765,8.775405103604575e-06,2.027411646646268e-08,0.9999999196306015,0.0,0.0,0.0,0.0,0.0,0.0,0.0,0.0,0.0,-0.0,0.0,-0.0,0.0,0.0,0.0,0.0,0.0,0.0,0.0,0.0,0.0,1.2631178169646639e-05,-0.006459450935528034,-9.810480754510948,0.0,0.0,0.0,0.0,0.0,0.0,0.0,0.0,0.0
1710484723.5265086,577,1710484723,526361704,map,0.00040082637441247765,8.775405103604575e-06,2.027411646646268e-08,0.9999999196306015,0.0,0.0,0.0,0.0,0.0,0.0,0.0,0.0,0.0,-0.0,0.0,-0.0,0.0,0.0,0.0,0.0,0.0,0.0,0.0,0.0,0.0,1.5299113693106698e-05,-0.006470608615999423,-9.810467250334257,0.0,0.0,0.0,0.0,0.0,0.0,0.0,0.0,0.0
1710484723.5425487,578,1710484723,542346716,map,0.00040082637441247765,8.775405103604575e-06,2.027411646646268e-08,0.9999999196306015,0.0,0.0,0.0,0.0,0.0,0.0,0.0,0.0,0.0,-0.0,0.0,-0.0,0.0,0.0,0.0,0.0,0.0,0.0,0.0,0.0,0.0,1.34047917505126e-05,-0.0064747822869876195,-9.810466784672993,0.0,0.0,0.0,0.0,0.0,0.0,0.0,0.0,0.0
1710484723.558605,579,1710484723,558470249,map,0.00040082637441247765,8.775405103604575e-06,2.027411646646268e-08,0.9999999196306015,0.0,0.0,0.0,0.0,0.0,0.0,0.0,0.0,0.0,-0.0,0.0,-0.0,0.0,0.0,0.0,0.0,0.0,0.0,0.0,0.0,0.0,1.4519959211432615e-05,-0.006471298467697951,-9.810466784672993,0.0,0.0,0.0,0.0,0.0,0.0,0.0,0.0,0.0
1710484723.5755312,580,1710484723,575401068,map,0.00040082637441247765,8.775405103604575e-06,2.027411646646268e-08,0.9999999196306015,0.0,0.0,0.0,0.0,0.0,0.0,0.0,0.0,0.0,-0.0,0.0,-0.0,0.0,0.0,0.0,0.0,0.0,0.0,0.0,0.0,0.0,1.3677847537736026e-05,-0.006489916278106295,-9.810466784672993,0.0,0.0,0.0,0.0,0.0,0.0,0.0,0.0,0.0
1710484723.5922182,581,1710484723,592072487,map,0.00040082637441247765,8.775405103604575e-06,2.027411646646268e-08,0.9999999196306015,0.0,0.0,0.0,0.0,0.0,0.0,0.0,0.0,0.0,-0.0,0.0,-0.0,0.0,0.0,0.0,0.0,0.0,0.0,0.0,0.0,0.0,1.501632347086572e-05,-0.006478851593463746,-9.80999367282756,0.0,0.0,0.0,0.0,0.0,0.0,0.0,0.0,0.0
1710484723.6085827,582,1710484723,608451605,map,0.00040082637441247765,8.775405103604575e-06,2.027411646646268e-08,0.9999999196306015,0.0,0.0,0.0,0.0,0.0,0.0,0.0,0.0,0.0,-0.0,0.0,-0.0,0.0,0.0,0.0,0.0,0.0,0.0,0.0,0.0,0.0,1.2405395232477203e-05,-0.006483001390217155,-9.810936636889569,0.0,0.0,0.0,0.0,0.0,0.0,0.0,0.0,0.0
1710484723.6261988,583,1710484723,626046419,map,0.00040082637441247765,8.775405103604575e-06,2.027411646646268e-08,0.9999999196306015,0.0,0.0,0.0,0.0,0.0,0.0,0.0,0.0,0.0,-0.0,0.0,-0.0,0.0,0.0,0.0,0.0,0.0,0.0,0.0,0.0,0.0,1.675927761347201e-05,-0.006486559333321497,-9.810479823188418,0.0,0.0,0.0,0.0,0.0,0.0,0.0,0.0,0.0
1710484723.643107,584,1710484723,642953634,map,0.00040082637441247765,8.775405103604575e-06,2.027411646646268e-08,0.9999999196306015,0.0,0.0,0.0,0.0,0.0,0.0,0.0,0.0,0.0,-0.0,0.0,-0.0,0.0,0.0,0.0,0.0,0.0,0.0,0.0,0.0,0.0,1.2869918741165624e-05,-0.006475585370771141,-9.810466319011727,0.0,0.0,0.0,0.0,0.0,0.0,0.0,0.0,0.0
1710484723.660015,585,1710484723,659871101,map,0.00040082637441247765,8.775405103604575e-06,2.027411646646268e-08,0.9999999196306015,0.0,0.0,0.0,0.0,0.0,0.0,0.0,0.0,0.0,-0.0,0.0,-0.0,0.0,0.0,0.0,0.0,0.0,0.0,0.0,0.0,0.0,1.6666366161578657e-05,-0.00649407562455362,-9.810465853350461,0.0,0.0,0.0,0.0,0.0,0.0,0.0,0.0,0.0
1710484723.6755183,586,1710484723,675368547,map,0.00040082637441247765,8.775405103604575e-06,2.027411646646268e-08,0.9999999196306015,0.0,0.0,0.0,0.0,0.0,0.0,0.0,0.0,0.0,-0.0,0.0,-0.0,0.0,0.0,0.0,0.0,0.0,0.0,0.0,0.0,0.0,1.5358056762952033e-05,-0.006490826227512199,-9.810465853350461,0.0,0.0,0.0,0.0,0.0,0.0,0.0,0.0,0.0
1710484723.693699,587,1710484723,693524122,map,0.00040082637441247765,8.775405103604575e-06,2.027411646646268e-08,0.9999999196306015,0.0,0.0,0.0,0.0,0.0,0.0,0.0,0.0,0.0,-0.0,0.0,-0.0,0.0,0.0,0.0,0.0,0.0,0.0,0.0,0.0,0.0,1.260346833653577e-05,-0.006494466025135813,-9.810465853350461,0.0,0.0,0.0,0.0,0.0,0.0,0.0,0.0,0.0
1710484723.7090764,588,1710484723,708957672,map,0.00040082637441247765,8.775405103604575e-06,2.027411646646268e-08,0.9999999196306015,0.0,0.0,0.0,0.0,0.0,0.0,0.0,0.0,0.0,-0.0,0.0,-0.0,0.0,0.0,0.0,0.0,0.0,0.0,0.0,0.0,0.0,1.4760528542230903e-05,-0.006498265893819336,-9.810465387689197,0.0,0.0,0.0,0.0,0.0,0.0,0.0,0.0,0.0
1710484723.7259555,589,1710484723,725818157,map,0.00040082637441247765,8.775405103604575e-06,2.027411646646268e-08,0.9999999196306015,0.0,0.0,0.0,0.0,0.0,0.0,0.0,0.0,0.0,-0.0,0.0,-0.0,0.0,0.0,0.0,0.0,0.0,0.0,0.0,0.0,0.0,1.5106755128729055e-05,-0.006502019605648937,-9.810465853350461,0.0,0.0,0.0,0.0,0.0,0.0,0.0,0.0,0.0
1710484723.7426198,590,1710484723,742459059,map,0.00040082637441247765,8.775405103604575e-06,2.027411646646268e-08,0.9999999196306015,0.0,0.0,0.0,0.0,0.0,0.0,0.0,0.0,0.0,-0.0,0.0,-0.0,0.0,0.0,0.0,0.0,0.0,0.0,0.0,0.0,0.0,1.7093864178243654e-05,-0.006497991908553441,-9.809992275843763,0.0,0.0,0.0,0.0,0.0,0.0,0.0,0.0,0.0
1710484723.7587497,591,1710484723,758609056,map,0.00040082637441247765,8.775405103604575e-06,2.027411646646268e-08,0.9999999196306015,0.0,0.0,0.0,0.0,0.0,0.0,0.0,0.0,0.0,-0.0,0.0,-0.0,0.0,0.0,0.0,0.0,0.0,0.0,0.0,0.0,0.0,1.40891558389357e-05,-0.006517049232255541,-9.810935705567038,0.0,0.0,0.0,0.0,0.0,0.0,0.0,0.0,0.0
1710484723.7755644,592,1710484723,775428534,map,0.00040082637441247765,8.775405103604575e-06,2.027411646646268e-08,0.9999999196306015,0.0,0.0,0.0,0.0,0.0,0.0,0.0,0.0,0.0,-0.0,0.0,-0.0,0.0,0.0,0.0,0.0,0.0,0.0,0.0,0.0,0.0,1.5739771404702132e-05,-0.006505792189492703,-9.810479357527152,0.0,0.0,0.0,0.0,0.0,0.0,0.0,0.0,0.0
1710484723.792603,593,1710484723,792473316,map,0.00040082637441247765,8.775405103604575e-06,2.027411646646268e-08,0.9999999196306015,0.0,0.0,0.0,0.0,0.0,0.0,0.0,0.0,0.0,-0.0,0.0,-0.0,0.0,0.0,0.0,0.0,0.0,0.0,0.0,0.0,0.0,1.5002800510978883e-05,-0.006523895453297958,-9.810466319011727,0.0,0.0,0.0,0.0,0.0,0.0,0.0,0.0,0.0
1710484723.810917,594,1710484723,810734034,map,0.00040082637441247765,8.775405103604575e-06,2.027411646646268e-08,0.9999999196306015,0.0,0.0,0.0,0.0,0.0,0.0,0.0,0.0,0.0,-0.0,0.0,-0.0,0.0,0.0,0.0,0.0,0.0,0.0,0.0,0.0,0.0,1.66262018471691e-05,-0.006512862600968459,-9.810465853350461,0.0,0.0,0.0,0.0,0.0,0.0,0.0,0.0,0.0
1710484723.8255765,595,1710484723,825428724,map,0.00040082637441247765,8.775405103604575e-06,2.027411646646268e-08,0.9999999196306015,0.0,0.0,0.0,0.0,0.0,0.0,0.0,0.0,0.0,-0.0,0.0,-0.0,0.0,0.0,0.0,0.0,0.0,0.0,0.0,0.0,0.0,1.546894672156302e-05,-0.006523469582424081,-9.810465853350461,0.0,0.0,0.0,0.0,0.0,0.0,0.0,0.0,0.0
1710484723.8430781,596,1710484723,842925549,map,0.00040082637441247765,8.775405103604575e-06,2.027411646646268e-08,0.9999999196306015,0.0,0.0,0.0,0.0,0.0,0.0,0.0,0.0,0.0,-0.0,0.0,-0.0,0.0,0.0,0.0,0.0,0.0,0.0,0.0,0.0,0.0,1.6587701979039003e-05,-0.006527090280659865,-9.810465387689197,0.0,0.0,0.0,0.0,0.0,0.0,0.0,0.0,0.0
1710484723.8585672,597,1710484723,858324051,map,0.00040082637441247765,8.775405103604575e-06,2.027411646646268e-08,0.9999999196306015,0.0,0.0,0.0,0.0,0.0,0.0,0.0,0.0,0.0,-0.0,0.0,-0.0,0.0,0.0,0.0,0.0,0.0,0.0,0.0,0.0,0.0,1.5689550246523985e-05,-0.006522740167707905,-9.80999274150503,0.0,0.0,0.0,0.0,0.0,0.0,0.0,0.0,0.0
1710484723.875282,598,1710484723,875085115,map,0.00040082637441247765,8.775405103604575e-06,2.027411646646268e-08,0.9999999196306015,0.0,0.0,0.0,0.0,0.0,0.0,0.0,0.0,0.0,-0.0,0.0,-0.0,0.0,0.0,0.0,0.0,0.0,0.0,0.0,0.0,0.0,1.728428873420426e-05,-0.006519276812048054,-9.810936171228304,0.0,0.0,0.0,0.0,0.0,0.0,0.0,0.0,0.0
1710484723.8926747,599,1710484723,892542839,map,0.00040082637441247765,8.775405103604575e-06,2.027411646646268e-08,0.9999999196306015,0.0,0.0,0.0,0.0,0.0,0.0,0.0,0.0,0.0,-0.0,0.0,-0.0,0.0,0.0,0.0,0.0,0.0,0.0,0.0,0.0,0.0,1.3742185847135566e-05,-0.006529773062528995,-9.810479357527152,0.0,0.0,0.0,0.0,0.0,0.0,0.0,0.0,0.0
1710484723.9086022,600,1710484723,908407450,map,0.00040082637441247765,8.775405103604575e-06,2.027411646646268e-08,0.9999999196306015,0.0,0.0,0.0,0.0,0.0,0.0,0.0,0.0,0.0,-0.0,0.0,-0.0,0.0,0.0,0.0,0.0,0.0,0.0,0.0,0.0,0.0,1.620875712155918e-05,-0.006533388303796827,-9.810465853350461,0.0,0.0,0.0,0.0,0.0,0.0,0.0,0.0,0.0
1710484723.9257388,601,1710484723,925594568,map,0.00040082637441247765,8.775405103604575e-06,2.027411646646268e-08,0.9999999196306015,0.0,0.0,0.0,0.0,0.0,0.0,0.0,0.0,0.0,-0.0,0.0,-0.0,0.0,0.0,0.0,0.0,0.0,0.0,0.0,0.0,0.0,1.6901936824468295e-05,-0.006521962095027495,-9.810465853350461,0.0,0.0,0.0,0.0,0.0,0.0,0.0,0.0,0.0
1710484723.9417994,602,1710484723,941674948,map,0.00040082637441247765,8.775405103604575e-06,2.027411646646268e-08,0.9999999196306015,0.0,0.0,0.0,0.0,0.0,0.0,0.0,0.0,0.0,-0.0,0.0,-0.0,0.0,0.0,0.0,0.0,0.0,0.0,0.0,0.0,0.0,1.6182310722190326e-05,-0.006539991007644411,-9.810465853350461,0.0,0.0,0.0,0.0,0.0,0.0,0.0,0.0,0.0
1710484723.9585433,603,1710484723,958345890,map,0.00040082637441247765,8.775405103604575e-06,2.027411646646268e-08,0.9999999196306015,0.0,0.0,0.0,0.0,0.0,0.0,0.0,0.0,0.0,-0.0,0.0,-0.0,0.0,0.0,0.0,0.0,0.0,0.0,0.0,0.0,0.0,1.6565967365962862e-05,-0.006536281861053081,-9.810465387689197,0.0,0.0,0.0,0.0,0.0,0.0,0.0,0.0,0.0
1710484723.9757123,604,1710484723,975545645,map,0.00040082637441247765,8.775405103604575e-06,2.027411646646268e-08,0.9999999196306015,0.0,0.0,0.0,0.0,0.0,0.0,0.0,0.0,0.0,-0.0,0.0,-0.0,0.0,0.0,0.0,0.0,0.0,0.0,0.0,0.0,0.0,1.4904528014398856e-05,-0.006539460772258463,-9.810465387689197,0.0,0.0,0.0,0.0,0.0,0.0,0.0,0.0,0.0
1710484723.9929602,605,1710484723,992265224,map,0.00040082637441247765,8.775405103604575e-06,2.027411646646268e-08,0.9999999196306015,0.0,0.0,0.0,0.0,0.0,0.0,0.0,0.0,0.0,-0.0,0.0,-0.0,0.0,0.0,0.0,0.0,0.0,0.0,0.0,0.0,0.0,1.6797937353710058e-05,-0.006542477793414618,-9.809991810182499,0.0,0.0,0.0,0.0,0.0,0.0,0.0,0.0,0.0
1710484724.008409,606,1710484724,8274078,map,0.00040082637441247765,8.775405103604575e-06,2.027411646646268e-08,0.9999999196306015,0.0,0.0,0.0,0.0,0.0,0.0,0.0,0.0,0.0,-0.0,0.0,-0.0,0.0,0.0,0.0,0.0,0.0,0.0,0.0,0.0,0.0,1.7130674731099718e-05,-0.006546440916389356,-9.810935239905774,0.0,0.0,0.0,0.0,0.0,0.0,0.0,0.0,0.0
1710484724.0250459,607,1710484724,24875641,map,0.00040082637441247765,8.775405103604575e-06,2.027411646646268e-08,0.9999999196306015,0.0,0.0,0.0,0.0,0.0,0.0,0.0,0.0,0.0,-0.0,0.0,-0.0,0.0,0.0,0.0,0.0,0.0,0.0,0.0,0.0,0.0,1.5806420754239962e-05,-0.006556796877319211,-9.810479357527152,0.0,0.0,0.0,0.0,0.0,0.0,0.0,0.0,0.0
1710484724.0431502,608,1710484724,42986631,map,0.00040082637441247765,8.775405103604575e-06,2.027411646646268e-08,0.9999999196306015,0.0,0.0,0.0,0.0,0.0,0.0,0.0,0.0,0.0,-0.0,0.0,-0.0,0.0,0.0,0.0,0.0,0.0,0.0,0.0,0.0,0.0,1.6939566277788426e-05,-0.006545258573333209,-9.810466319011727,0.0,0.0,0.0,0.0,0.0,0.0,0.0,0.0,0.0
1710484724.058635,609,1710484724,58494091,map,0.00040082637441247765,8.775405103604575e-06,2.027411646646268e-08,0.9999999196306015,0.0,0.0,0.0,0.0,0.0,0.0,0.0,0.0,0.0,-0.0,0.0,-0.0,0.0,0.0,0.0,0.0,0.0,0.0,0.0,0.0,0.0,1.6164806058637094e-05,-0.0065629896264494435,-9.810465853350461,0.0,0.0,0.0,0.0,0.0,0.0,0.0,0.0,0.0
1710484724.0757344,610,1710484724,75531721,map,0.00040082637441247765,8.775405103604575e-06,2.027411646646268e-08,0.9999999196306015,0.0,0.0,0.0,0.0,0.0,0.0,0.0,0.0,0.0,-0.0,0.0,-0.0,0.0,0.0,0.0,0.0,0.0,0.0,0.0,0.0,0.0,1.7252811692505168e-05,-0.006551577514847319,-9.810465853350461,0.0,0.0,0.0,0.0,0.0,0.0,0.0,0.0,0.0
1710484724.0929532,611,1710484724,92824221,map,0.00040082637441247765,8.775405103604575e-06,2.027411646646268e-08,0.9999999196306015,0.0,0.0,0.0,0.0,0.0,0.0,0.0,0.0,0.0,-0.0,0.0,-0.0,0.0,0.0,0.0,0.0,0.0,0.0,0.0,0.0,0.0,1.672262338001039e-05,-0.006554433328075242,-9.810465853350461,0.0,0.0,0.0,0.0,0.0,0.0,0.0,0.0,0.0
1710484724.1098742,612,1710484724,109757900,map,0.00040082637441247765,8.775405103604575e-06,2.027411646646268e-08,0.9999999196306015,0.0,0.0,0.0,0.0,0.0,0.0,0.0,0.0,0.0,-0.0,0.0,-0.0,0.0,0.0,0.0,0.0,0.0,0.0,0.0,0.0,0.0,1.769041096185763e-05,-0.006557672720675418,-9.810465853350461,0.0,0.0,0.0,0.0,0.0,0.0,0.0,0.0,0.0
1710484724.1258168,613,1710484724,125681162,map,0.00040082637441247765,8.775405103604575e-06,2.027411646646268e-08,0.9999999196306015,0.0,0.0,0.0,0.0,0.0,0.0,0.0,0.0,0.0,-0.0,0.0,-0.0,0.0,0.0,0.0,0.0,0.0,0.0,0.0,0.0,0.0,1.542459375792511e-05,-0.0065457444708545524,-9.80999274150503,0.0,0.0,0.0,0.0,0.0,0.0,0.0,0.0,0.0
1710484724.1430404,614,1710484724,142892122,map,0.00040082637441247765,8.775405103604575e-06,2.027411646646268e-08,0.9999999196306015,0.0,0.0,0.0,0.0,0.0,0.0,0.0,0.0,0.0,-0.0,0.0,-0.0,0.0,0.0,0.0,0.0,0.0,0.0,0.0,0.0,0.0,1.8241190801856692e-05,-0.0065642615547294595,-9.810936171228304,0.0,0.0,0.0,0.0,0.0,0.0,0.0,0.0,0.0
1710484724.158834,615,1710484724,158700705,map,0.00040082637441247765,8.775405103604575e-06,2.027411646646268e-08,0.9999999196306015,0.0,0.0,0.0,0.0,0.0,0.0,0.0,0.0,0.0,-0.0,0.0,-0.0,0.0,0.0,0.0,0.0,0.0,0.0,0.0,0.0,0.0,1.6227096672787277e-05,-0.006567485713294105,-9.810479823188418,0.0,0.0,0.0,0.0,0.0,0.0,0.0,0.0,0.0
1710484724.1753013,616,1710484724,175162077,map,0.00040082637441247765,8.775405103604575e-06,2.027411646646268e-08,0.9999999196306015,0.0,0.0,0.0,0.0,0.0,0.0,0.0,0.0,0.0,-0.0,0.0,-0.0,0.0,0.0,0.0,0.0,0.0,0.0,0.0,0.0,0.0,1.7834425533058e-05,-0.006570551392414494,-9.810466319011727,0.0,0.0,0.0,0.0,0.0,0.0,0.0,0.0,0.0
1710484724.1932032,617,1710484724,193053007,map,0.00040082637441247765,8.775405103604575e-06,2.027411646646268e-08,0.9999999196306015,0.0,0.0,0.0,0.0,0.0,0.0,0.0,0.0,0.0,-0.0,0.0,-0.0,0.0,0.0,0.0,0.0,0.0,0.0,0.0,0.0,0.0,1.8258298005585988e-05,-0.006558779120927574,-9.810466319011727,0.0,0.0,0.0,0.0,0.0,0.0,0.0,0.0,0.0
1710484724.2090647,618,1710484724,208889246,map,0.00040082637441247765,8.775405103604575e-06,2.027411646646268e-08,0.9999999196306015,0.0,0.0,0.0,0.0,0.0,0.0,0.0,0.0,0.0,-0.0,0.0,-0.0,0.0,0.0,0.0,0.0,0.0,0.0,0.0,0.0,0.0,1.6061436306348514e-05,-0.006576480160720075,-9.810465853350461,0.0,0.0,0.0,0.0,0.0,0.0,0.0,0.0,0.0
1710484724.2256908,619,1710484724,225464582,map,0.00040082637441247765,8.775405103604575e-06,2.027411646646268e-08,0.9999999196306015,0.0,0.0,0.0,0.0,0.0,0.0,0.0,0.0,0.0,-0.0,0.0,-0.0,0.0,0.0,0.0,0.0,0.0,0.0,0.0,0.0,0.0,1.683389436714533e-05,-0.006579858706003014,-9.810466319011727,0.0,0.0,0.0,0.0,0.0,0.0,0.0,0.0,0.0
1710484724.2430062,620,1710484724,242825747,map,0.00040082637441247765,8.775405103604575e-06,2.027411646646268e-08,0.9999999196306015,0.0,0.0,0.0,0.0,0.0,0.0,0.0,0.0,0.0,-0.0,0.0,-0.0,0.0,0.0,0.0,0.0,0.0,0.0,0.0,0.0,0.0,1.6940036124150133e-05,-0.006567981387883028,-9.810466319011727,0.0,0.0,0.0,0.0,0.0,0.0,0.0,0.0,0.0
1710484724.258872,621,1710484724,258761168,map,0.00040082637441247765,8.775405103604575e-06,2.027411646646268e-08,0.9999999196306015,0.0,0.0,0.0,0.0,0.0,0.0,0.0,0.0,0.0,-0.0,0.0,-0.0,0.0,0.0,0.0,0.0,0.0,0.0,0.0,0.0,0.0,1.8601405753711504e-05,-0.006585224951862267,-9.809992275843763,0.0,0.0,0.0,0.0,0.0,0.0,0.0,0.0,0.0
1710484724.2755373,622,1710484724,275414228,map,0.00040082637441247765,8.775405103604575e-06,2.027411646646268e-08,0.9999999196306015,0.0,0.0,0.0,0.0,0.0,0.0,0.0,0.0,0.0,-0.0,0.0,-0.0,0.0,0.0,0.0,0.0,0.0,0.0,0.0,0.0,0.0,1.6551521144652597e-05,-0.006574322384642608,-9.810936171228304,0.0,0.0,0.0,0.0,0.0,0.0,0.0,0.0,0.0
1710484724.2928433,623,1710484724,292551279,map,0.00040082637441247765,8.775405103604575e-06,2.027411646646268e-08,0.9999999196306015,0.0,0.0,0.0,0.0,0.0,0.0,0.0,0.0,0.0,-0.0,0.0,-0.0,0.0,0.0,0.0,0.0,0.0,0.0,0.0,0.0,0.0,1.9142617248049606e-05,-0.006576707307011054,-9.810480288849682,0.0,0.0,0.0,0.0,0.0,0.0,0.0,0.0,0.0
1710484724.3097239,624,1710484724,309494019,map,0.00040082637441247765,8.775405103604575e-06,2.027411646646268e-08,0.9999999196306015,0.0,0.0,0.0,0.0,0.0,0.0,0.0,0.0,0.0,-0.0,0.0,-0.0,0.0,0.0,0.0,0.0,0.0,0.0,0.0,0.0,0.0,1.5330365137497902e-05,-0.006579786628551322,-9.810466784672993,0.0,0.0,0.0,0.0,0.0,0.0,0.0,0.0,0.0
1710484724.3265429,625,1710484724,326360941,map,0.00040082637441247765,8.775405103604575e-06,2.027411646646268e-08,0.9999999196306015,0.0,0.0,0.0,0.0,0.0,0.0,0.0,0.0,0.0,-0.0,0.0,-0.0,0.0,0.0,0.0,0.0,0.0,0.0,0.0,0.0,0.0,1.7854882945627282e-05,-0.006582845259088107,-9.810466319011727,0.0,0.0,0.0,0.0,0.0,0.0,0.0,0.0,0.0
1710484724.3417966,626,1710484724,341678619,map,0.00040082637441247765,8.775405103604575e-06,2.027411646646268e-08,0.9999999196306015,0.0,0.0,0.0,0.0,0.0,0.0,0.0,0.0,0.0,-0.0,0.0,-0.0,0.0,0.0,0.0,0.0,0.0,0.0,0.0,0.0,0.0,1.8183659935631605e-05,-0.006585865690849233,-9.810466319011727,0.0,0.0,0.0,0.0,0.0,0.0,0.0,0.0,0.0
1710484724.358506,627,1710484724,358387232,map,0.00040082637441247765,8.775405103604575e-06,2.027411646646268e-08,0.9999999196306015,0.0,0.0,0.0,0.0,0.0,0.0,0.0,0.0,0.0,-0.0,0.0,-0.0,0.0,0.0,0.0,0.0,0.0,0.0,0.0,0.0,0.0,1.7351668610457598e-05,-0.006581449639534525,-9.810466319011727,0.0,0.0,0.0,0.0,0.0,0.0,0.0,0.0,0.0
1710484724.375497,628,1710484724,375251770,map,0.00040082637441247765,8.775405103604575e-06,2.027411646646268e-08,0.9999999196306015,0.0,0.0,0.0,0.0,0.0,0.0,0.0,0.0,0.0,-0.0,0.0,-0.0,0.0,0.0,0.0,0.0,0.0,0.0,0.0,0.0,0.0,1.7266206310616456e-05,-0.0065917430727066035,-9.810466319011727,0.0,0.0,0.0,0.0,0.0,0.0,0.0,0.0,0.0
1710484724.392049,629,1710484724,391905308,map,0.00040082637441247765,8.775405103604575e-06,2.027411646646268e-08,0.9999999196306015,0.0,0.0,0.0,0.0,0.0,0.0,0.0,0.0,0.0,-0.0,0.0,-0.0,0.0,0.0,0.0,0.0,0.0,0.0,0.0,0.0,0.0,1.8347407165845205e-05,-0.006594525671614512,-9.809993207166293,0.0,0.0,0.0,0.0,0.0,0.0,0.0,0.0,0.0
1710484724.4086187,630,1710484724,408516407,map,0.00040082637441247765,8.775405103604575e-06,2.027411646646268e-08,0.9999999196306015,0.0,0.0,0.0,0.0,0.0,0.0,0.0,0.0,0.0,-0.0,0.0,-0.0,0.0,0.0,0.0,0.0,0.0,0.0,0.0,0.0,0.0,1.810665131758764e-05,-0.006598035184128285,-9.810936636889569,0.0,0.0,0.0,0.0,0.0,0.0,0.0,0.0,0.0
1710484724.4262414,631,1710484724,426051140,map,0.00040082637441247765,8.775405103604575e-06,2.027411646646268e-08,0.9999999196306015,0.0,0.0,0.0,0.0,0.0,0.0,0.0,0.0,0.0,-0.0,0.0,-0.0,0.0,0.0,0.0,0.0,0.0,0.0,0.0,0.0,0.0,1.7632210409135898e-05,-0.0065931305068082586,-9.810479823188418,0.0,0.0,0.0,0.0,0.0,0.0,0.0,0.0,0.0
1710484724.4437935,632,1710484724,443397045,map,0.00040082637441247765,8.775405103604575e-06,2.027411646646268e-08,0.9999999196306015,0.0,0.0,0.0,0.0,0.0,0.0,0.0,0.0,0.0,-0.0,0.0,-0.0,0.0,0.0,0.0,0.0,0.0,0.0,0.0,0.0,0.0,1.7266834252729358e-05,-0.006595855352805347,-9.810466319011727,0.0,0.0,0.0,0.0,0.0,0.0,0.0,0.0,0.0
1710484724.459222,633,1710484724,459071875,map,0.00040082637441247765,8.775405103604575e-06,2.027411646646268e-08,0.9999999196306015,0.0,0.0,0.0,0.0,0.0,0.0,0.0,0.0,0.0,-0.0,0.0,-0.0,0.0,0.0,0.0,0.0,0.0,0.0,0.0,0.0,0.0,1.8371122416703203e-05,-0.006591371998885906,-9.810465853350461,0.0,0.0,0.0,0.0,0.0,0.0,0.0,0.0,0.0
1710484724.475103,634,1710484724,474924803,map,0.00040082637441247765,8.775405103604575e-06,2.027411646646268e-08,0.9999999196306015,0.0,0.0,0.0,0.0,0.0,0.0,0.0,0.0,0.0,-0.0,0.0,-0.0,0.0,0.0,0.0,0.0,0.0,0.0,0.0,0.0,0.0,1.7923442322765957e-05,-0.006609010738294295,-9.810466319011727,0.0,0.0,0.0,0.0,0.0,0.0,0.0,0.0,0.0
1710484724.4928474,635,1710484724,492688417,map,0.00040082637441247765,8.775405103604575e-06,2.027411646646268e-08,0.9999999196306015,0.0,0.0,0.0,0.0,0.0,0.0,0.0,0.0,0.0,-0.0,0.0,-0.0,0.0,0.0,0.0,0.0,0.0,0.0,0.0,0.0,0.0,1.670228054245181e-05,-0.0065973089526434135,-9.810466319011727,0.0,0.0,0.0,0.0,0.0,0.0,0.0,0.0,0.0
1710484724.5086877,636,1710484724,508501768,map,0.00040082637441247765,8.775405103604575e-06,2.027411646646268e-08,0.9999999196306015,0.0,0.0,0.0,0.0,0.0,0.0,0.0,0.0,0.0,-0.0,0.0,-0.0,0.0,0.0,0.0,0.0,0.0,0.0,0.0,0.0,0.0,1.8393784288005472e-05,-0.006599853718698105,-9.810466319011727,0.0,0.0,0.0,0.0,0.0,0.0,0.0,0.0,0.0
1710484724.5253868,637,1710484724,525102615,map,0.00040082637441247765,8.775405103604575e-06,2.027411646646268e-08,0.9999999196306015,0.0,0.0,0.0,0.0,0.0,0.0,0.0,0.0,0.0,-0.0,0.0,-0.0,0.0,0.0,0.0,0.0,0.0,0.0,0.0,0.0,0.0,1.8747881467195966e-05,-0.006602783883114366,-9.810466319011727,0.0,0.0,0.0,0.0,0.0,0.0,0.0,0.0,0.0
1710484724.5417805,638,1710484724,541646481,map,0.00040082637441247765,8.775405103604575e-06,2.027411646646268e-08,0.9999999196306015,0.0,0.0,0.0,0.0,0.0,0.0,0.0,0.0,0.0,-0.0,0.0,-0.0,0.0,0.0,0.0,0.0,0.0,0.0,0.0,0.0,0.0,1.780729967723035e-05,-0.006605362073097759,-9.809992275843763,0.0,0.0,0.0,0.0,0.0,0.0,0.0,0.0,0.0
1710484724.5583737,639,1710484724,558246374,map,0.00040082637441247765,8.775405103604575e-06,2.027411646646268e-08,0.9999999196306015,0.0,0.0,0.0,0.0,0.0,0.0,0.0,0.0,0.0,-0.0,0.0,-0.0,0.0,0.0,0.0,0.0,0.0,0.0,0.0,0.0,0.0,1.8832399633421812e-05,-0.006608879543689795,-9.810935705567038,0.0,0.0,0.0,0.0,0.0,0.0,0.0,0.0,0.0
1710484724.5753071,640,1710484724,575117111,map,0.00040082637441247765,8.775405103604575e-06,2.027411646646268e-08,0.9999999196306015,0.0,0.0,0.0,0.0,0.0,0.0,0.0,0.0,0.0,-0.0,0.0,-0.0,0.0,0.0,0.0,0.0,0.0,0.0,0.0,0.0,0.0,1.7649788347405277e-05,-0.006611391340563113,-9.810479823188418,0.0,0.0,0.0,0.0,0.0,0.0,0.0,0.0,0.0
1710484724.5930893,641,1710484724,592798471,map,0.00040082637441247765,8.775405103604575e-06,2.027411646646268e-08,0.9999999196306015,0.0,0.0,0.0,0.0,0.0,0.0,0.0,0.0,0.0,-0.0,0.0,-0.0,0.0,0.0,0.0,0.0,0.0,0.0,0.0,0.0,0.0,1.7851983931403075e-05,-0.00661417098361338,-9.810466319011727,0.0,0.0,0.0,0.0,0.0,0.0,0.0,0.0,0.0
1710484724.6092796,642,1710484724,609134912,map,0.00040082637441247765,8.775405103604575e-06,2.027411646646268e-08,0.9999999196306015,0.0,0.0,0.0,0.0,0.0,0.0,0.0,0.0,0.0,-0.0,0.0,-0.0,0.0,0.0,0.0,0.0,0.0,0.0,0.0,0.0,0.0,1.7623188293177112e-05,-0.006602125181607893,-9.810465853350461,0.0,0.0,0.0,0.0,0.0,0.0,0.0,0.0,0.0
1710484724.6261733,643,1710484724,626047611,map,0.00040082637441247765,8.775405103604575e-06,2.027411646646268e-08,0.9999999196306015,0.0,0.0,0.0,0.0,0.0,0.0,0.0,0.0,0.0,-0.0,0.0,-0.0,0.0,0.0,0.0,0.0,0.0,0.0,0.0,0.0,0.0,2.0843819013307346e-05,-0.006619553827750152,-9.810465853350461,0.0,0.0,0.0,0.0,0.0,0.0,0.0,0.0,0.0
1710484724.6432188,644,1710484724,643028259,map,0.00040082637441247765,8.775405103604575e-06,2.027411646646268e-08,0.9999999196306015,0.0,0.0,0.0,0.0,0.0,0.0,0.0,0.0,0.0,-0.0,0.0,-0.0,0.0,0.0,0.0,0.0,0.0,0.0,0.0,0.0,0.0,1.6776752523049594e-05,-0.00660786181916685,-9.810465853350461,0.0,0.0,0.0,0.0,0.0,0.0,0.0,0.0,0.0
1710484724.6587582,645,1710484724,658438683,map,0.00040082637441247765,8.775405103604575e-06,2.027411646646268e-08,0.9999999196306015,0.0,0.0,0.0,0.0,0.0,0.0,0.0,0.0,0.0,-0.0,0.0,-0.0,0.0,0.0,0.0,0.0,0.0,0.0,0.0,0.0,0.0,1.684219705861833e-05,-0.00661782919850383,-9.810465853350461,0.0,0.0,0.0,0.0,0.0,0.0,0.0,0.0,0.0
1710484724.676739,646,1710484724,676426888,map,0.00040082637441247765,8.775405103604575e-06,2.027411646646268e-08,0.9999999196306015,0.0,0.0,0.0,0.0,0.0,0.0,0.0,0.0,0.0,-0.0,0.0,-0.0,0.0,0.0,0.0,0.0,0.0,0.0,0.0,0.0,0.0,1.946528978806528e-05,-0.006620498110579416,-9.80999274150503,0.0,0.0,0.0,0.0,0.0,0.0,0.0,0.0,0.0
1710484724.6927035,647,1710484724,692575932,map,0.00040082637441247765,8.775405103604575e-06,2.027411646646268e-08,0.9999999196306015,0.0,0.0,0.0,0.0,0.0,0.0,0.0,0.0,0.0,-0.0,0.0,-0.0,0.0,0.0,0.0,0.0,0.0,0.0,0.0,0.0,0.0,1.8149035189762605e-05,-0.00661650224579697,-9.810936171228304,0.0,0.0,0.0,0.0,0.0,0.0,0.0,0.0,0.0
1710484724.709634,648,1710484724,709510326,map,0.00040082637441247765,8.775405103604575e-06,2.027411646646268e-08,0.9999999196306015,0.0,0.0,0.0,0.0,0.0,0.0,0.0,0.0,0.0,-0.0,0.0,-0.0,0.0,0.0,0.0,0.0,0.0,0.0,0.0,0.0,0.0,1.8278663047604004e-05,-0.00662624975480024,-9.810479823188418,0.0,0.0,0.0,0.0,0.0,0.0,0.0,0.0,0.0
1710484724.7264585,649,1710484724,726224899,map,0.00040082637441247765,8.775405103604575e-06,2.027411646646268e-08,0.9999999196306015,0.0,0.0,0.0,0.0,0.0,0.0,0.0,0.0,0.0,-0.0,0.0,-0.0,0.0,0.0,0.0,0.0,0.0,0.0,0.0,0.0,0.0,1.8853195441952922e-05,-0.00662173024846812,-9.810466319011727,0.0,0.0,0.0,0.0,0.0,0.0,0.0,0.0,0.0
1710484724.7425025,650,1710484724,742250443,map,0.00040082637441247765,8.775405103604575e-06,2.027411646646268e-08,0.9999999196306015,0.0,0.0,0.0,0.0,0.0,0.0,0.0,0.0,0.0,-0.0,0.0,-0.0,0.0,0.0,0.0,0.0,0.0,0.0,0.0,0.0,0.0,1.8328612423198632e-05,-0.006616919931218921,-9.810465853350461,0.0,0.0,0.0,0.0,0.0,0.0,0.0,0.0,0.0
1710484724.7585826,651,1710484724,758403063,map,0.00039980189581205206,9.167506864829334e-06,2.0794687316632273e-08,0.9999999200371971,0.0,0.0,0.0,0.0,0.0,0.0,0.0,0.0,0.0,-0.0002048957355642316,7.842039104187478e-05,7.096351161798849e-08,0.0,0.0,0.0,0.0,0.0,0.0,0.0,0.0,0.0,1.7004577826398124e-05,-0.006619630452675137,-9.810465853350461,0.0,0.0,0.0,0.0,0.0,0.0,0.0,0.0,0.0
1710484724.7752552,652,1710484724,775051594,map,0.00039980189581205206,9.167506864829334e-06,2.0794687316632273e-08,0.9999999200371971,0.0,0.0,0.0,0.0,0.0,0.0,0.0,0.0,0.0,-0.0,0.0,-0.0,0.0,0.0,0.0,0.0,0.0,0.0,0.0,0.0,0.0,-0.0003061848264938395,-0.007510486155090231,-9.81040019511207,0.0,0.0,0.0,0.0,0.0,0.0,0.0,0.0,0.0
1710484724.7921913,653,1710484724,792104483,map,0.00039980189581205206,9.167506864829334e-06,2.0794687316632273e-08,0.9999999200371971,0.0,0.0,0.0,0.0,0.0,0.0,0.0,0.0,0.0,-0.0,0.0,-0.0,0.0,0.0,0.0,0.0,0.0,0.0,0.0,0.0,0.0,0.0003576769572720683,-0.005424396446611645,-9.810536168201505,0.0,0.0,0.0,0.0,0.0,0.0,0.0,0.0,0.0
1710484724.808964,654,1710484724,808786154,map,0.00039980189581205206,9.167506864829334e-06,2.0794687316632273e-08,0.9999999200371971,0.0,0.0,0.0,0.0,0.0,0.0,0.0,0.0,0.0,-0.0,0.0,-0.0,0.0,0.0,0.0,0.0,0.0,0.0,0.0,0.0,0.0,1.3299177571464042e-05,-0.006349031690140845,-9.810468181656788,0.0,0.0,0.0,0.0,0.0,0.0,0.0,0.0,0.0
1710484724.825455,655,1710484724,825259924,map,0.00039980189581205206,9.167506864829334e-06,2.0794687316632273e-08,0.9999999200371971,0.0,0.0,0.0,0.0,0.0,0.0,0.0,0.0,0.0,-0.0,0.0,-0.0,0.0,0.0,0.0,0.0,0.0,0.0,0.0,0.0,0.0,2.3559818753755758e-05,-0.006495832086112992,-9.810465853350461,0.0,0.0,0.0,0.0,0.0,0.0,0.0,0.0,0.0
1710484724.841765,656,1710484724,841632128,map,0.00039980189581205206,9.167506864829334e-06,2.0794687316632273e-08,0.9999999200371971,0.0,0.0,0.0,0.0,0.0,0.0,0.0,0.0,0.0,-0.0,0.0,-0.0,0.0,0.0,0.0,0.0,0.0,0.0,0.0,0.0,0.0,1.898563616071591e-05,-0.006542978470224164,-9.810466319011727,0.0,0.0,0.0,0.0,0.0,0.0,0.0,0.0,0.0
1710484724.8589325,657,1710484724,858732462,map,0.00039980189581205206,9.167506864829334e-06,2.0794687316632273e-08,0.9999999200371971,0.0,0.0,0.0,0.0,0.0,0.0,0.0,0.0,0.0,-0.0,0.0,-0.0,0.0,0.0,0.0,0.0,0.0,0.0,0.0,0.0,0.0,1.7007449751181815e-05,-0.006571160753835739,-9.810057934082156,0.0,0.0,0.0,0.0,0.0,0.0,0.0,0.0,0.0
1710484724.875111,658,1710484724,874971390,map,0.00039980189581205206,9.167506864829334e-06,2.0794687316632273e-08,0.9999999200371971,0.0,0.0,0.0,0.0,0.0,0.0,0.0,0.0,0.0,-0.0,0.0,-0.0,0.0,0.0,0.0,0.0,0.0,0.0,0.0,0.0,0.0,1.893424171890107e-05,-0.0065915893681093045,-9.81080206078393,0.0,0.0,0.0,0.0,0.0,0.0,0.0,0.0,0.0
1710484724.8920808,659,1710484724,891914845,map,0.00039980189581205206,9.167506864829334e-06,2.0794687316632273e-08,0.9999999200371971,0.0,0.0,0.0,0.0,0.0,0.0,0.0,0.0,0.0,-0.0,0.0,-0.0,0.0,0.0,0.0,0.0,0.0,0.0,0.0,0.0,0.0,1.8078765181068835e-05,-0.006610663972209918,-9.81054734407187,0.0,0.0,0.0,0.0,0.0,0.0,0.0,0.0,0.0
1710484724.9095688,660,1710484724,909460068,map,0.00039980189581205206,9.167506864829334e-06,2.0794687316632273e-08,0.9999999200371971,0.0,0.0,0.0,0.0,0.0,0.0,0.0,0.0,0.0,-0.0,0.0,-0.0,0.0,0.0,0.0,0.0,0.0,0.0,0.0,0.0,0.0,1.9380149896975174e-05,-0.006629447310646123,-9.810468647318054,0.0,0.0,0.0,0.0,0.0,0.0,0.0,0.0,0.0
1710484724.9257655,661,1710484724,925648212,map,0.00039980189581205206,9.167506864829334e-06,2.0794687316632273e-08,0.9999999200371971,0.0,0.0,0.0,0.0,0.0,0.0,0.0,0.0,0.0,-0.0,0.0,-0.0,0.0,0.0,0.0,0.0,0.0,0.0,0.0,0.0,0.0,1.7154550742244048e-05,-0.006633062324540291,-9.810466319011727,0.0,0.0,0.0,0.0,0.0,0.0,0.0,0.0,0.0
1710484724.942479,662,1710484724,942307234,map,0.00039980189581205206,9.167506864829334e-06,2.0794687316632273e-08,0.9999999200371971,0.0,0.0,0.0,0.0,0.0,0.0,0.0,0.0,0.0,-0.0,0.0,-0.0,0.0,0.0,0.0,0.0,0.0,0.0,0.0,0.0,0.0,1.800091634627974e-05,-0.006636199171617713,-9.810466319011727,0.0,0.0,0.0,0.0,0.0,0.0,0.0,0.0,0.0
1710484724.959488,663,1710484724,959290028,map,0.00039980189581205206,9.167506864829334e-06,2.0794687316632273e-08,0.9999999200371971,0.0,0.0,0.0,0.0,0.0,0.0,0.0,0.0,0.0,-0.0,0.0,-0.0,0.0,0.0,0.0,0.0,0.0,0.0,0.0,0.0,0.0,1.8751564742927516e-05,-0.00664667859644747,-9.810466319011727,0.0,0.0,0.0,0.0,0.0,0.0,0.0,0.0,0.0
1710484724.9755745,664,1710484724,975439310,map,0.00039980189581205206,9.167506864829334e-06,2.0794687316632273e-08,0.9999999200371971,0.0,0.0,0.0,0.0,0.0,0.0,0.0,0.0,0.0,-0.0,0.0,-0.0,0.0,0.0,0.0,0.0,0.0,0.0,0.0,0.0,0.0,2.0432284226621402e-05,-0.006657158248650892,-9.810466319011727,0.0,0.0,0.0,0.0,0.0,0.0,0.0,0.0,0.0
1710484724.992447,665,1710484724,992277384,map,0.00039980189581205206,9.167506864829334e-06,2.0794687316632273e-08,0.9999999200371971,0.0,0.0,0.0,0.0,0.0,0.0,0.0,0.0,0.0,-0.0,0.0,-0.0,0.0,0.0,0.0,0.0,0.0,0.0,0.0,0.0,0.0,1.7678331735923442e-05,-0.00666003338864031,-9.810466319011727,0.0,0.0,0.0,0.0,0.0,0.0,0.0,0.0,0.0
1710484725.008689,666,1710484725,8566141,map,0.00039980189581205206,9.167506864829334e-06,2.0794687316632273e-08,0.9999999200371971,0.0,0.0,0.0,0.0,0.0,0.0,0.0,0.0,0.0,-0.0,0.0,-0.0,0.0,0.0,0.0,0.0,0.0,0.0,0.0,0.0,0.0,1.9632689207767217e-05,-0.00667712279327492,-9.80999274150503,0.0,0.0,0.0,0.0,0.0,0.0,0.0,0.0,0.0
1710484725.0258543,667,1710484725,25738478,map,0.00039980189581205206,9.167506864829334e-06,2.0794687316632273e-08,0.9999999200371971,0.0,0.0,0.0,0.0,0.0,0.0,0.0,0.0,0.0,-0.0,0.0,-0.0,0.0,0.0,0.0,0.0,0.0,0.0,0.0,0.0,0.0,1.8000937662560803e-05,-0.006665632237758493,-9.810936171228304,0.0,0.0,0.0,0.0,0.0,0.0,0.0,0.0,0.0
1710484725.0432746,668,1710484725,43145895,map,0.00039980189581205206,9.167506864829334e-06,2.0794687316632273e-08,0.9999999200371971,0.0,0.0,0.0,0.0,0.0,0.0,0.0,0.0,0.0,-0.0,0.0,-0.0,0.0,0.0,0.0,0.0,0.0,0.0,0.0,0.0,0.0,1.8328268698166535e-05,-0.006682217782352253,-9.810480288849682,0.0,0.0,0.0,0.0,0.0,0.0,0.0,0.0,0.0
1710484725.060471,669,1710484725,60325384,map,0.00039980189581205206,9.167506864829334e-06,2.0794687316632273e-08,0.9999999200371971,0.0,0.0,0.0,0.0,0.0,0.0,0.0,0.0,0.0,-0.0,0.0,-0.0,0.0,0.0,0.0,0.0,0.0,0.0,0.0,0.0,0.0,1.783054596990502e-05,-0.006669995311009339,-9.810466784672993,0.0,0.0,0.0,0.0,0.0,0.0,0.0,0.0,0.0
1710484725.075922,670,1710484725,75670242,map,0.00039980189581205206,9.167506864829334e-06,2.0794687316632273e-08,0.9999999200371971,0.0,0.0,0.0,0.0,0.0,0.0,0.0,0.0,0.0,-0.0,0.0,-0.0,0.0,0.0,0.0,0.0,0.0,0.0,0.0,0.0,0.0,2.0517033319225404e-05,-0.0066794392761703085,-9.810466319011727,0.0,0.0,0.0,0.0,0.0,0.0,0.0,0.0,0.0
1710484725.0936556,671,1710484725,93514204,map,0.00039980189581205206,9.167506864829334e-06,2.0794687316632273e-08,0.9999999200371971,0.0,0.0,0.0,0.0,0.0,0.0,0.0,0.0,0.0,-0.0,0.0,-0.0,0.0,0.0,0.0,0.0,0.0,0.0,0.0,0.0,0.0,1.813778641061139e-05,-0.006681919013356912,-9.810466319011727,0.0,0.0,0.0,0.0,0.0,0.0,0.0,0.0,0.0
1710484725.109964,672,1710484725,109794617,map,0.00039980189581205206,9.167506864829334e-06,2.0794687316632273e-08,0.9999999200371971,0.0,0.0,0.0,0.0,0.0,0.0,0.0,0.0,0.0,-0.0,0.0,-0.0,0.0,0.0,0.0,0.0,0.0,0.0,0.0,0.0,0.0,1.746328598715977e-05,-0.006676757403795838,-9.810466319011727,0.0,0.0,0.0,0.0,0.0,0.0,0.0,0.0,0.0
1710484725.1259782,673,1710484725,125837088,map,0.00039980189581205206,9.167506864829334e-06,2.0794687316632273e-08,0.9999999200371971,0.0,0.0,0.0,0.0,0.0,0.0,0.0,0.0,0.0,-0.0,0.0,-0.0,0.0,0.0,0.0,0.0,0.0,0.0,0.0,0.0,0.0,1.898463607186283e-05,-0.006686306642963538,-9.810466319011727,0.0,0.0,0.0,0.0,0.0,0.0,0.0,0.0,0.0
1710484725.1441905,674,1710484725,144052505,map,0.00039980189581205206,9.167506864829334e-06,2.0794687316632273e-08,0.9999999200371971,0.0,0.0,0.0,0.0,0.0,0.0,0.0,0.0,0.0,-0.0,0.0,-0.0,0.0,0.0,0.0,0.0,0.0,0.0,0.0,0.0,0.0,1.9666447091539766e-05,-0.006681014520918959,-9.810057934082156,0.0,0.0,0.0,0.0,0.0,0.0,0.0,0.0,0.0
1710484725.158712,675,1710484725,158581972,map,0.00039980189581205206,9.167506864829334e-06,2.0794687316632273e-08,0.9999999200371971,0.0,0.0,0.0,0.0,0.0,0.0,0.0,0.0,0.0,-0.0,0.0,-0.0,0.0,0.0,0.0,0.0,0.0,0.0,0.0,0.0,0.0,1.945176283137574e-05,-0.006683638413008946,-9.81080206078393,0.0,0.0,0.0,0.0,0.0,0.0,0.0,0.0,0.0
1710484725.1769764,676,1710484725,176848412,map,0.0003987997928404209,9.593048542353759e-06,2.116081580026683e-08,0.999999920433346,0.0,0.0,0.0,0.0,0.0,0.0,0.0,0.0,0.0,-0.00020042060889374134,8.510836137901952e-05,3.7447145513491074e-08,0.0,0.0,0.0,0.0,0.0,0.0,0.0,0.0,0.0,1.6497397330683656e-05,-0.006685739345670252,-9.810546878410605,0.0,0.0,0.0,0.0,0.0,0.0,0.0,0.0,0.0
1710484725.1923232,677,1710484725,192183018,map,0.0003987997928404209,9.593048542353759e-06,2.116081580026683e-08,0.999999920433346,0.0,0.0,0.0,0.0,0.0,0.0,0.0,0.0,0.0,-0.0,0.0,-0.0,0.0,0.0,0.0,0.0,0.0,0.0,0.0,0.0,0.0,-0.00033465895841483924,-0.007516466991965015,-9.810058865404686,0.0,0.0,0.0,0.0,0.0,0.0,0.0,0.0,0.0
1710484725.2091126,678,1710484725,208979130,map,0.0003987997928404209,9.593048542353759e-06,2.116081580026683e-08,0.999999920433346,0.0,0.0,0.0,0.0,0.0,0.0,0.0,0.0,0.0,-0.0,0.0,-0.0,0.0,0.0,0.0,0.0,0.0,0.0,0.0,0.0,0.0,0.00038375037146035594,-0.0055482109567039795,-9.81080299210646,0.0,0.0,0.0,0.0,0.0,0.0,0.0,0.0,0.0
1710484725.2251148,679,1710484725,224985838,map,0.0003987997928404209,9.593048542353759e-06,2.116081580026683e-08,0.999999920433346,0.0,0.0,0.0,0.0,0.0,0.0,0.0,0.0,0.0,-0.0,0.0,-0.0,0.0,0.0,0.0,0.0,0.0,0.0,0.0,0.0,0.0,1.540876020198917e-05,-0.006414954591478283,-9.810546878410605,0.0,0.0,0.0,0.0,0.0,0.0,0.0,0.0,0.0
1710484725.2426105,680,1710484725,242394209,map,0.0003987997928404209,9.593048542353759e-06,2.116081580026683e-08,0.999999920433346,0.0,0.0,0.0,0.0,0.0,0.0,0.0,0.0,0.0,-0.0,0.0,-0.0,0.0,0.0,0.0,0.0,0.0,0.0,0.0,0.0,0.0,2.3921063992528484e-05,-0.006559393257195776,-9.810469112979318,0.0,0.0,0.0,0.0,0.0,0.0,0.0,0.0,0.0
1710484725.2590506,681,1710484725,258921862,map,0.0003987997928404209,9.593048542353759e-06,2.116081580026683e-08,0.999999920433346,0.0,0.0,0.0,0.0,0.0,0.0,0.0,0.0,0.0,-0.0,0.0,-0.0,0.0,0.0,0.0,0.0,0.0,0.0,0.0,0.0,0.0,1.8700143655761346e-05,-0.006605866387885939,-9.810466784672993,0.0,0.0,0.0,0.0,0.0,0.0,0.0,0.0,0.0
1710484725.276024,682,1710484725,275811195,map,0.0003987997928404209,9.593048542353759e-06,2.116081580026683e-08,0.999999920433346,0.0,0.0,0.0,0.0,0.0,0.0,0.0,0.0,0.0,-0.0,0.0,-0.0,0.0,0.0,0.0,0.0,0.0,0.0,0.0,0.0,0.0,2.030434657223241e-05,-0.006625973495797698,-9.809991810182499,0.0,0.0,0.0,0.0,0.0,0.0,0.0,0.0,0.0
1710484725.2926567,683,1710484725,292446852,map,0.0003987997928404209,9.593048542353759e-06,2.116081580026683e-08,0.999999920433346,0.0,0.0,0.0,0.0,0.0,0.0,0.0,0.0,0.0,-0.0,0.0,-0.0,0.0,0.0,0.0,0.0,0.0,0.0,0.0,0.0,0.0,1.651624714038963e-05,-0.006645886653973517,-9.810936171228304,0.0,0.0,0.0,0.0,0.0,0.0,0.0,0.0,0.0
1710484725.3088803,684,1710484725,308766603,map,0.0003987997928404209,9.593048542353759e-06,2.116081580026683e-08,0.999999920433346,0.0,0.0,0.0,0.0,0.0,0.0,0.0,0.0,0.0,-0.0,0.0,-0.0,0.0,0.0,0.0,0.0,0.0,0.0,0.0,0.0,0.0,1.869016763622511e-05,-0.006664413287542339,-9.810479357527152,0.0,0.0,0.0,0.0,0.0,0.0,0.0,0.0,0.0
1710484725.3257978,685,1710484725,325661659,map,0.0003987997928404209,9.593048542353759e-06,2.116081580026683e-08,0.999999920433346,0.0,0.0,0.0,0.0,0.0,0.0,0.0,0.0,0.0,-0.0,0.0,-0.0,0.0,0.0,0.0,0.0,0.0,0.0,0.0,0.0,0.0,1.945562640731793e-05,-0.006675430678462642,-9.810466319011727,0.0,0.0,0.0,0.0,0.0,0.0,0.0,0.0,0.0
1710484725.3426561,686,1710484725,342519999,map,0.0003987997928404209,9.593048542353759e-06,2.116081580026683e-08,0.999999920433346,0.0,0.0,0.0,0.0,0.0,0.0,0.0,0.0,0.0,-0.0,0.0,-0.0,0.0,0.0,0.0,0.0,0.0,0.0,0.0,0.0,0.0,1.7718280222987263e-05,-0.006686008101341861,-9.810465853350461,0.0,0.0,0.0,0.0,0.0,0.0,0.0,0.0,0.0
1710484725.3589656,687,1710484725,358775139,map,0.0003987997928404209,9.593048542353759e-06,2.116081580026683e-08,0.999999920433346,0.0,0.0,0.0,0.0,0.0,0.0,0.0,0.0,0.0,-0.0,0.0,-0.0,0.0,0.0,0.0,0.0,0.0,0.0,0.0,0.0,0.0,1.9806176202068632e-05,-0.006696357468435442,-9.810465853350461,0.0,0.0,0.0,0.0,0.0,0.0,0.0,0.0,0.0
1710484725.376467,688,1710484725,376306057,map,0.0003987997928404209,9.593048542353759e-06,2.116081580026683e-08,0.999999920433346,0.0,0.0,0.0,0.0,0.0,0.0,0.0,0.0,0.0,-0.0,0.0,-0.0,0.0,0.0,0.0,0.0,0.0,0.0,0.0,0.0,0.0,1.9082428952118998e-05,-0.006706490375800282,-9.810465853350461,0.0,0.0,0.0,0.0,0.0,0.0,0.0,0.0,0.0
1710484725.392333,689,1710484725,392125368,map,0.0003987997928404209,9.593048542353759e-06,2.116081580026683e-08,0.999999920433346,0.0,0.0,0.0,0.0,0.0,0.0,0.0,0.0,0.0,-0.0,0.0,-0.0,0.0,0.0,0.0,0.0,0.0,0.0,0.0,0.0,0.0,1.834337217147616e-05,-0.0067015972945371535,-9.810465853350461,0.0,0.0,0.0,0.0,0.0,0.0,0.0,0.0,0.0
1710484725.409322,690,1710484725,409191370,map,0.0003987997928404209,9.593048542353759e-06,2.116081580026683e-08,0.999999920433346,0.0,0.0,0.0,0.0,0.0,0.0,0.0,0.0,0.0,-0.0,0.0,-0.0,0.0,0.0,0.0,0.0,0.0,0.0,0.0,0.0,0.0,1.9458900232817445e-05,-0.006711229979839778,-9.810465853350461,0.0,0.0,0.0,0.0,0.0,0.0,0.0,0.0,0.0
1710484725.4258447,691,1710484725,425701618,map,0.0003987997928404209,9.593048542353759e-06,2.116081580026683e-08,0.999999920433346,0.0,0.0,0.0,0.0,0.0,0.0,0.0,0.0,0.0,-0.0,0.0,-0.0,0.0,0.0,0.0,0.0,0.0,0.0,0.0,0.0,0.0,1.8053826020406624e-05,-0.0067207526162887145,-9.809991344521233,0.0,0.0,0.0,0.0,0.0,0.0,0.0,0.0,0.0
1710484725.4425302,692,1710484725,442384005,map,0.0003987997928404209,9.593048542353759e-06,2.116081580026683e-08,0.999999920433346,0.0,0.0,0.0,0.0,0.0,0.0,0.0,0.0,0.0,-0.0,0.0,-0.0,0.0,0.0,0.0,0.0,0.0,0.0,0.0,0.0,0.0,1.8766216133442984e-05,-0.006716249253486784,-9.810935239905774,0.0,0.0,0.0,0.0,0.0,0.0,0.0,0.0,0.0
1710484725.4595635,693,1710484725,459423065,map,0.0003987997928404209,9.593048542353759e-06,2.116081580026683e-08,0.999999920433346,0.0,0.0,0.0,0.0,0.0,0.0,0.0,0.0,0.0,-0.0,0.0,-0.0,0.0,0.0,0.0,0.0,0.0,0.0,0.0,0.0,0.0,2.003277626334538e-05,-0.006717890663971846,-9.810479357527152,0.0,0.0,0.0,0.0,0.0,0.0,0.0,0.0,0.0
1710484725.4754496,694,1710484725,475303411,map,0.0003987997928404209,9.593048542353759e-06,2.116081580026683e-08,0.999999920433346,0.0,0.0,0.0,0.0,0.0,0.0,0.0,0.0,0.0,-0.0,0.0,-0.0,0.0,0.0,0.0,0.0,0.0,0.0,0.0,0.0,0.0,1.811616104347568e-05,-0.006727400340121898,-9.810465853350461,0.0,0.0,0.0,0.0,0.0,0.0,0.0,0.0,0.0
1710484725.4922788,695,1710484725,492093325,map,0.0003987997928404209,9.593048542353759e-06,2.116081580026683e-08,0.999999920433346,0.0,0.0,0.0,0.0,0.0,0.0,0.0,0.0,0.0,-0.0,0.0,-0.0,0.0,0.0,0.0,0.0,0.0,0.0,0.0,0.0,0.0,1.8591708622185804e-05,-0.006722143460995339,-9.810465387689197,0.0,0.0,0.0,0.0,0.0,0.0,0.0,0.0,0.0
1710484725.5087583,696,1710484725,508624554,map,0.0003987997928404209,9.593048542353759e-06,2.116081580026683e-08,0.999999920433346,0.0,0.0,0.0,0.0,0.0,0.0,0.0,0.0,0.0,-0.0,0.0,-0.0,0.0,0.0,0.0,0.0,0.0,0.0,0.0,0.0,0.0,1.8671327596481285e-05,-0.006716612141855555,-9.810465387689197,0.0,0.0,0.0,0.0,0.0,0.0,0.0,0.0,0.0
1710484725.5253437,697,1710484725,525236130,map,0.0003987997928404209,9.593048542353759e-06,2.116081580026683e-08,0.999999920433346,0.0,0.0,0.0,0.0,0.0,0.0,0.0,0.0,0.0,-0.0,0.0,-0.0,0.0,0.0,0.0,0.0,0.0,0.0,0.0,0.0,0.0,1.9176170850795328e-05,-0.006726004720568317,-9.810465387689197,0.0,0.0,0.0,0.0,0.0,0.0,0.0,0.0,0.0
1710484725.542225,698,1710484725,542054415,map,0.00039830432928885214,9.821740086603471e-06,2.1296728424309103e-08,0.999999920628594,0.0,0.0,0.0,0.0,0.0,0.0,0.0,0.0,0.0,-9.909271729699397e-05,4.573831776939678e-05,8.014154215812027e-09,0.0,0.0,0.0,0.0,0.0,0.0,0.0,0.0,0.0,1.9404047224400564e-05,-0.006727952858126982,-9.81005746842089,0.0,0.0,0.0,0.0,0.0,0.0,0.0,0.0,0.0
1710484725.5582387,699,1710484725,558137894,map,0.00039780143886807245,1.0049264438708386e-05,2.161240965600625e-08,0.9999999208265105,0.0,0.0,0.0,0.0,0.0,0.0,0.0,0.0,0.0,-0.00010057809160014186,4.550489368770054e-05,4.40464857686625e-08,0.0,0.0,0.0,0.0,0.0,0.0,0.0,0.0,0.0,-0.00016675607302325338,-0.007137192940051351,-9.810392744531827,0.0,0.0,0.0,0.0,0.0,0.0,0.0,0.0,0.0
1710484725.5752308,700,1710484725,575024843,map,0.00039780143886807245,1.0049264438708386e-05,2.161240965600625e-08,0.9999999208265105,0.0,0.0,0.0,0.0,0.0,0.0,0.0,0.0,0.0,-0.0,0.0,-0.0,0.0,0.0,0.0,0.0,0.0,0.0,0.0,0.0,0.0,3.332044259894765e-05,-0.006638707557886061,-9.810947347098669,0.0,0.0,0.0,0.0,0.0,0.0,0.0,0.0,0.0
1710484725.591803,701,1710484725,591695547,map,0.00039780143886807245,1.0049264438708386e-05,2.161240965600625e-08,0.9999999208265105,0.0,0.0,0.0,0.0,0.0,0.0,0.0,0.0,0.0,-0.0,0.0,-0.0,0.0,0.0,0.0,0.0,0.0,0.0,0.0,0.0,0.0,0.00019192444055028137,-0.005895049700608911,-9.810006711342984,0.0,0.0,0.0,0.0,0.0,0.0,0.0,0.0,0.0
1710484725.6085212,702,1710484725,608386278,map,0.00039780143886807245,1.0049264438708386e-05,2.161240965600625e-08,0.9999999208265105,0.0,0.0,0.0,0.0,0.0,0.0,0.0,0.0,0.0,-0.0,0.0,-0.0,0.0,0.0,0.0,0.0,0.0,0.0,0.0,0.0,0.0,3.534512159383109e-05,-0.0065610312570758686,-9.810461662399074,0.0,0.0,0.0,0.0,0.0,0.0,0.0,0.0,0.0
1710484725.6248534,703,1710484725,624731779,map,0.00039780143886807245,1.0049264438708386e-05,2.161240965600625e-08,0.9999999208265105,0.0,0.0,0.0,0.0,0.0,0.0,0.0,0.0,0.0,-0.0,0.0,-0.0,0.0,0.0,0.0,0.0,0.0,0.0,0.0,0.0,0.0,1.2170844198364951e-05,-0.006616108434609808,-9.810949209743729,0.0,0.0,0.0,0.0,0.0,0.0,0.0,0.0,0.0
1710484725.643005,704,1710484725,642845631,map,0.00039780143886807245,1.0049264438708386e-05,2.161240965600625e-08,0.9999999208265105,0.0,0.0,0.0,0.0,0.0,0.0,0.0,0.0,0.0,-0.0,0.0,-0.0,0.0,0.0,0.0,0.0,0.0,0.0,0.0,0.0,0.0,2.0964136985395644e-05,-0.006651743344827405,-9.810479823188418,0.0,0.0,0.0,0.0,0.0,0.0,0.0,0.0,0.0
1710484725.6582973,705,1710484725,658160448,map,0.00039780143886807245,1.0049264438708386e-05,2.161240965600625e-08,0.9999999208265105,0.0,0.0,0.0,0.0,0.0,0.0,0.0,0.0,0.0,-0.0,0.0,-0.0,0.0,0.0,0.0,0.0,0.0,0.0,0.0,0.0,0.0,1.876655719393995e-05,-0.006664177501052104,-9.810466319011727,0.0,0.0,0.0,0.0,0.0,0.0,0.0,0.0,0.0
1710484725.6756127,706,1710484725,675328970,map,0.00039780143886807245,1.0049264438708386e-05,2.161240965600625e-08,0.9999999208265105,0.0,0.0,0.0,0.0,0.0,0.0,0.0,0.0,0.0,-0.0,0.0,-0.0,0.0,0.0,0.0,0.0,0.0,0.0,0.0,0.0,0.0,1.8293365952465372e-05,-0.0066756948866609584,-9.810465853350461,0.0,0.0,0.0,0.0,0.0,0.0,0.0,0.0,0.0
1710484725.6919692,707,1710484725,691840649,map,0.00039780143886807245,1.0049264438708386e-05,2.161240965600625e-08,0.9999999208265105,0.0,0.0,0.0,0.0,0.0,0.0,0.0,0.0,0.0,-0.0,0.0,-0.0,0.0,0.0,0.0,0.0,0.0,0.0,0.0,0.0,0.0,1.8689838122047052e-05,-0.006701754409739422,-9.810466319011727,0.0,0.0,0.0,0.0,0.0,0.0,0.0,0.0,0.0
1710484725.7107255,708,1710484725,710588694,map,0.00039780143886807245,1.0049264438708386e-05,2.161240965600625e-08,0.9999999208265105,0.0,0.0,0.0,0.0,0.0,0.0,0.0,0.0,0.0,-0.0,0.0,-0.0,0.0,0.0,0.0,0.0,0.0,0.0,0.0,0.0,0.0,1.8738989025280296e-05,-0.0067054278586654035,-9.8104011264346,0.0,0.0,0.0,0.0,0.0,0.0,0.0,0.0,0.0
1710484725.7253253,709,1710484725,725191832,map,0.00039780143886807245,1.0049264438708386e-05,2.161240965600625e-08,0.9999999208265105,0.0,0.0,0.0,0.0,0.0,0.0,0.0,0.0,0.0,-0.0,0.0,-0.0,0.0,0.0,0.0,0.0,0.0,0.0,0.0,0.0,0.0,1.9763985952779964e-05,-0.00672302339707751,-9.810060728049747,0.0,0.0,0.0,0.0,0.0,0.0,0.0,0.0,0.0
1710484725.7431543,710,1710484725,742936373,map,0.00039780143886807245,1.0049264438708386e-05,2.161240965600625e-08,0.9999999208265105,0.0,0.0,0.0,0.0,0.0,0.0,0.0,0.0,0.0,-0.0,0.0,-0.0,0.0,0.0,0.0,0.0,0.0,0.0,0.0,0.0,0.0,1.8830029973510603e-05,-0.006734085125862419,-9.810938033873365,0.0,0.0,0.0,0.0,0.0,0.0,0.0,0.0,0.0
1710484725.75985,711,1710484725,759701014,map,0.00039780143886807245,1.0049264438708386e-05,2.161240965600625e-08,0.9999999208265105,0.0,0.0,0.0,0.0,0.0,0.0,0.0,0.0,0.0,-0.0,0.0,-0.0,0.0,0.0,0.0,0.0,0.0,0.0,0.0,0.0,0.0,1.8378842463160556e-05,-0.006721600720057835,-9.810479823188418,0.0,0.0,0.0,0.0,0.0,0.0,0.0,0.0,0.0
1710484725.7760255,712,1710484725,775803328,map,0.00039780143886807245,1.0049264438708386e-05,2.161240965600625e-08,0.9999999208265105,0.0,0.0,0.0,0.0,0.0,0.0,0.0,0.0,0.0,-0.0,0.0,-0.0,0.0,0.0,0.0,0.0,0.0,0.0,0.0,0.0,0.0,1.9860718348053384e-05,-0.006738659429247718,-9.810466784672993,0.0,0.0,0.0,0.0,0.0,0.0,0.0,0.0,0.0
1710484725.7930508,713,1710484725,792904615,map,0.00039780143886807245,1.0049264438708386e-05,2.161240965600625e-08,0.9999999208265105,0.0,0.0,0.0,0.0,0.0,0.0,0.0,0.0,0.0,-0.0,0.0,-0.0,0.0,0.0,0.0,0.0,0.0,0.0,0.0,0.0,0.0,1.8412277938182065e-05,-0.006741419745536491,-9.810466319011727,0.0,0.0,0.0,0.0,0.0,0.0,0.0,0.0,0.0
1710484725.8097575,714,1710484725,809635639,map,0.00039780143886807245,1.0049264438708386e-05,2.161240965600625e-08,0.9999999208265105,0.0,0.0,0.0,0.0,0.0,0.0,0.0,0.0,0.0,-0.0,0.0,-0.0,0.0,0.0,0.0,0.0,0.0,0.0,0.0,0.0,0.0,1.8687134507065902e-05,-0.00674339152995628,-9.80999274150503,0.0,0.0,0.0,0.0,0.0,0.0,0.0,0.0,0.0
1710484725.8257325,715,1710484725,825522661,map,0.00039780143886807245,1.0049264438708386e-05,2.161240965600625e-08,0.9999999208265105,0.0,0.0,0.0,0.0,0.0,0.0,0.0,0.0,0.0,-0.0,0.0,-0.0,0.0,0.0,0.0,0.0,0.0,0.0,0.0,0.0,0.0,1.706271620663343e-05,-0.006746296228522102,-9.810936171228304,0.0,0.0,0.0,0.0,0.0,0.0,0.0,0.0,0.0
1710484725.8424807,716,1710484725,842280626,map,0.00039780143886807245,1.0049264438708386e-05,2.161240965600625e-08,0.9999999208265105,0.0,0.0,0.0,0.0,0.0,0.0,0.0,0.0,0.0,-0.0,0.0,-0.0,0.0,0.0,0.0,0.0,0.0,0.0,0.0,0.0,0.0,2.0002769156861072e-05,-0.0067481909332695765,-9.810480288849682,0.0,0.0,0.0,0.0,0.0,0.0,0.0,0.0,0.0
1710484725.8585572,717,1710484725,858344078,map,0.00039780143886807245,1.0049264438708386e-05,2.161240965600625e-08,0.9999999208265105,0.0,0.0,0.0,0.0,0.0,0.0,0.0,0.0,0.0,-0.0,0.0,-0.0,0.0,0.0,0.0,0.0,0.0,0.0,0.0,0.0,0.0,1.9824054344629608e-05,-0.006750373720450155,-9.810466784672993,0.0,0.0,0.0,0.0,0.0,0.0,0.0,0.0,0.0
1710484725.8749952,718,1710484725,874826193,map,0.00039780143886807245,1.0049264438708386e-05,2.161240965600625e-08,0.9999999208265105,0.0,0.0,0.0,0.0,0.0,0.0,0.0,0.0,0.0,-0.0,0.0,-0.0,0.0,0.0,0.0,0.0,0.0,0.0,0.0,0.0,0.0,1.867866128534442e-05,-0.006744821710306889,-9.80999274150503,0.0,0.0,0.0,0.0,0.0,0.0,0.0,0.0,0.0
1710484725.8918228,719,1710484725,891627550,map,0.00039780143886807245,1.0049264438708386e-05,2.161240965600625e-08,0.9999999208265105,0.0,0.0,0.0,0.0,0.0,0.0,0.0,0.0,0.0,-0.0,0.0,-0.0,0.0,0.0,0.0,0.0,0.0,0.0,0.0,0.0,0.0,1.7554574737157407e-05,-0.006747270297301435,-9.810526854976201,0.0,0.0,0.0,0.0,0.0,0.0,0.0,0.0,0.0
1710484725.9087183,720,1710484725,908514261,map,0.00039780143886807245,1.0049264438708386e-05,2.161240965600625e-08,0.9999999208265105,0.0,0.0,0.0,0.0,0.0,0.0,0.0,0.0,0.0,-0.0,0.0,-0.0,0.0,0.0,0.0,0.0,0.0,0.0,0.0,0.0,0.0,2.3026926826279826e-05,-0.006749785504779722,-9.810880757537745,0.0,0.0,0.0,0.0,0.0,0.0,0.0,0.0,0.0
1710484725.9251611,721,1710484725,925036430,map,0.0003973096768948561,1.029450545988511e-05,2.1995930934459977e-08,0.9999999210195186,0.0,0.0,0.0,0.0,0.0,0.0,0.0,0.0,0.0,-9.835240193671383e-05,4.90482325751603e-05,5.622855340029289e-08,0.0,0.0,0.0,0.0,0.0,0.0,0.0,0.0,0.0,1.6599272722852068e-05,-0.0067517695673774015,-9.810477960543357,0.0,0.0,0.0,0.0,0.0,0.0,0.0,0.0,0.0
1710484725.9426355,722,1710484725,942423344,map,0.0003968105117041727,1.053823976601897e-05,2.2233111438745144e-08,0.9999999212151783,0.0,0.0,0.0,0.0,0.0,0.0,0.0,0.0,0.0,-9.98330452220343e-05,4.8746878003116714e-05,2.7065097556326802e-08,0.0,0.0,0.0,0.0,0.0,0.0,0.0,0.0,0.0,-0.0001908943170571867,-0.00716099350577158,-9.810465387689197,0.0,0.0,0.0,0.0,0.0,0.0,0.0,0.0,0.0
1710484725.958801,723,1710484725,958690166,map,0.0003968105117041727,1.053823976601897e-05,2.2233111438745144e-08,0.9999999212151783,0.0,0.0,0.0,0.0,0.0,0.0,0.0,0.0,0.0,-0.0,0.0,-0.0,0.0,0.0,0.0,0.0,0.0,0.0,0.0,0.0,0.0,3.585545023780466e-05,-0.006654894289072036,-9.8104011264346,0.0,0.0,0.0,0.0,0.0,0.0,0.0,0.0,0.0
1710484725.9752827,724,1710484725,975090504,map,0.0003968105117041727,1.053823976601897e-05,2.2233111438745144e-08,0.9999999212151783,0.0,0.0,0.0,0.0,0.0,0.0,0.0,0.0,0.0,-0.0,0.0,-0.0,0.0,0.0,0.0,0.0,0.0,0.0,0.0,0.0,0.0,0.00020548306612804695,-0.00593401927299217,-9.810061193711011,0.0,0.0,0.0,0.0,0.0,0.0,0.0,0.0,0.0
1710484725.9922316,725,1710484725,991877317,map,0.0003968105117041727,1.053823976601897e-05,2.2233111438745144e-08,0.9999999212151783,0.0,0.0,0.0,0.0,0.0,0.0,0.0,0.0,0.0,-0.0,0.0,-0.0,0.0,0.0,0.0,0.0,0.0,0.0,0.0,0.0,0.0,4.27623507387957e-05,-0.006593088670053964,-9.8104639907054,0.0,0.0,0.0,0.0,0.0,0.0,0.0,0.0,0.0
1710484726.009063,726,1710484726,8943319,map,0.0003968105117041727,1.053823976601897e-05,2.2233111438745144e-08,0.9999999212151783,0.0,0.0,0.0,0.0,0.0,0.0,0.0,0.0,0.0,-0.0,0.0,-0.0,0.0,0.0,0.0,0.0,0.0,0.0,0.0,0.0,0.0,1.2569027887680102e-05,-0.006647700641070043,-9.810541290475422,0.0,0.0,0.0,0.0,0.0,0.0,0.0,0.0,0.0
1710484726.0252545,727,1710484726,25038004,map,0.0003968105117041727,1.053823976601897e-05,2.2233111438745144e-08,0.9999999212151783,0.0,0.0,0.0,0.0,0.0,0.0,0.0,0.0,0.0,-0.0,0.0,-0.0,0.0,0.0,0.0,0.0,0.0,0.0,0.0,0.0,0.0,1.9492154519449945e-05,-0.006669127880478723,-9.810881688860277,0.0,0.0,0.0,0.0,0.0,0.0,0.0,0.0,0.0
1710484726.042324,728,1710484726,42172670,map,0.0003968105117041727,1.053823976601897e-05,2.2233111438745144e-08,0.9999999212151783,0.0,0.0,0.0,0.0,0.0,0.0,0.0,0.0,0.0,-0.0,0.0,-0.0,0.0,0.0,0.0,0.0,0.0,0.0,0.0,0.0,0.0,1.955714075497588e-05,-0.006696051878230161,-9.810478426204622,0.0,0.0,0.0,0.0,0.0,0.0,0.0,0.0,0.0
1710484726.0586512,729,1710484726,58480501,map,0.0003968105117041727,1.053823976601897e-05,2.2233111438745144e-08,0.9999999212151783,0.0,0.0,0.0,0.0,0.0,0.0,0.0,0.0,0.0,-0.0,0.0,-0.0,0.0,0.0,0.0,0.0,0.0,0.0,0.0,0.0,0.0,1.6748319268650244e-05,-0.006708023101673645,-9.810466319011727,0.0,0.0,0.0,0.0,0.0,0.0,0.0,0.0,0.0
1710484726.0750175,730,1710484726,74760675,map,0.0003968105117041727,1.053823976601897e-05,2.2233111438745144e-08,0.9999999212151783,0.0,0.0,0.0,0.0,0.0,0.0,0.0,0.0,0.0,-0.0,0.0,-0.0,0.0,0.0,0.0,0.0,0.0,0.0,0.0,0.0,0.0,1.7484669769776797e-05,-0.0067341167308018045,-9.810465853350461,0.0,0.0,0.0,0.0,0.0,0.0,0.0,0.0,0.0
1710484726.0919814,731,1710484726,91864109,map,0.0003968105117041727,1.053823976601897e-05,2.2233111438745144e-08,0.9999999212151783,0.0,0.0,0.0,0.0,0.0,0.0,0.0,0.0,0.0,-0.0,0.0,-0.0,0.0,0.0,0.0,0.0,0.0,0.0,0.0,0.0,0.0,2.133370889645756e-05,-0.006730477160551855,-9.810466319011727,0.0,0.0,0.0,0.0,0.0,0.0,0.0,0.0,0.0
1710484726.1100407,732,1710484726,109873056,map,0.0003968105117041727,1.053823976601897e-05,2.2233111438745144e-08,0.9999999212151783,0.0,0.0,0.0,0.0,0.0,0.0,0.0,0.0,0.0,-0.0,0.0,-0.0,0.0,0.0,0.0,0.0,0.0,0.0,0.0,0.0,0.0,1.6132360014328134e-05,-0.006748247549312073,-9.810400660773336,0.0,0.0,0.0,0.0,0.0,0.0,0.0,0.0,0.0
1710484726.1256704,733,1710484726,125541210,map,0.0003968105117041727,1.053823976601897e-05,2.2233111438745144e-08,0.9999999212151783,0.0,0.0,0.0,0.0,0.0,0.0,0.0,0.0,0.0,-0.0,0.0,-0.0,0.0,0.0,0.0,0.0,0.0,0.0,0.0,0.0,0.0,2.2178371862543562e-05,-0.006751260022994935,-9.81006026238848,0.0,0.0,0.0,0.0,0.0,0.0,0.0,0.0,0.0
1710484726.1425061,734,1710484726,142369747,map,0.0003968105117041727,1.053823976601897e-05,2.2233111438745144e-08,0.9999999212151783,0.0,0.0,0.0,0.0,0.0,0.0,0.0,0.0,0.0,-0.0,0.0,-0.0,0.0,0.0,0.0,0.0,0.0,0.0,0.0,0.0,0.0,1.9719917206222857e-05,-0.006754642433630173,-9.810937568212099,0.0,0.0,0.0,0.0,0.0,0.0,0.0,0.0,0.0
1710484726.1584601,735,1710484726,158361673,map,0.0003968105117041727,1.053823976601897e-05,2.2233111438745144e-08,0.9999999212151783,0.0,0.0,0.0,0.0,0.0,0.0,0.0,0.0,0.0,-0.0,0.0,-0.0,0.0,0.0,0.0,0.0,0.0,0.0,0.0,0.0,0.0,1.8366781888972293e-05,-0.006757066464268938,-9.810480288849682,0.0,0.0,0.0,0.0,0.0,0.0,0.0,0.0,0.0
1710484726.174807,736,1710484726,174679279,map,0.0003968105117041727,1.053823976601897e-05,2.2233111438745144e-08,0.9999999212151783,0.0,0.0,0.0,0.0,0.0,0.0,0.0,0.0,0.0,-0.0,0.0,-0.0,0.0,0.0,0.0,0.0,0.0,0.0,0.0,0.0,0.0,1.955914626175231e-05,-0.006774548770596052,-9.810466319011727,0.0,0.0,0.0,0.0,0.0,0.0,0.0,0.0,0.0
1710484726.1918237,737,1710484726,191632271,map,0.0003968105117041727,1.053823976601897e-05,2.2233111438745144e-08,0.9999999212151783,0.0,0.0,0.0,0.0,0.0,0.0,0.0,0.0,0.0,-0.0,0.0,-0.0,0.0,0.0,0.0,0.0,0.0,0.0,0.0,0.0,0.0,1.768700302142311e-05,-0.0067622007889902545,-9.81005839974342,0.0,0.0,0.0,0.0,0.0,0.0,0.0,0.0,0.0
1710484726.208347,738,1710484726,208207846,map,0.0003968105117041727,1.053823976601897e-05,2.2233111438745144e-08,0.9999999212151783,0.0,0.0,0.0,0.0,0.0,0.0,0.0,0.0,0.0,-0.0,0.0,-0.0,0.0,0.0,0.0,0.0,0.0,0.0,0.0,0.0,0.0,1.9806457754614304e-05,-0.006764888345706341,-9.810801595122664,0.0,0.0,0.0,0.0,0.0,0.0,0.0,0.0,0.0
1710484726.2252142,739,1710484726,225084305,map,0.0003968105117041727,1.053823976601897e-05,2.2233111438745144e-08,0.9999999212151783,0.0,0.0,0.0,0.0,0.0,0.0,0.0,0.0,0.0,-0.0,0.0,-0.0,0.0,0.0,0.0,0.0,0.0,0.0,0.0,0.0,0.0,1.6964743914345004e-05,-0.006767286001000007,-9.810546878410605,0.0,0.0,0.0,0.0,0.0,0.0,0.0,0.0,0.0
1710484726.242578,740,1710484726,242379189,map,0.00039632994928203997,1.079656084554688e-05,2.2635847105910756e-08,0.9999999214029994,0.0,0.0,0.0,0.0,0.0,0.0,0.0,0.0,0.0,-9.611249147564641e-05,5.166424550981942e-05,5.9058193793168015e-08,0.0,0.0,0.0,0.0,0.0,0.0,0.0,0.0,0.0,1.9653834958579066e-05,-0.006769781426969471,-9.810468647318054,0.0,0.0,0.0,0.0,0.0,0.0,0.0,0.0,0.0
1710484726.258618,741,1710484726,258350372,map,0.00039584191268541994,1.1053586145770845e-05,2.3001235272367177e-08,0.9999999215934958,0.0,0.0,0.0,0.0,0.0,0.0,0.0,0.0,0.0,-9.760732639093453e-05,5.140508674023416e-05,5.1675526048152824e-08,0.0,0.0,0.0,0.0,0.0,0.0,0.0,0.0,0.0,-0.00019247907597261723,-0.007186406150774133,-9.81005746842089,0.0,0.0,0.0,0.0,0.0,0.0,0.0,0.0,0.0
1710484726.274785,742,1710484726,274614573,map,0.00039584191268541994,1.1053586145770845e-05,2.3001235272367177e-08,0.9999999215934958,0.0,0.0,0.0,0.0,0.0,0.0,0.0,0.0,0.0,-0.0,0.0,-0.0,0.0,0.0,0.0,0.0,0.0,0.0,0.0,0.0,0.0,2.0097185182925934e-05,-0.006673541203309454,-9.810394141515623,0.0,0.0,0.0,0.0,0.0,0.0,0.0,0.0,0.0
1710484726.2922873,743,1710484726,292147160,map,0.00039584191268541994,1.1053586145770845e-05,2.3001235272367177e-08,0.9999999215934958,0.0,0.0,0.0,0.0,0.0,0.0,0.0,0.0,0.0,-0.0,0.0,-0.0,0.0,0.0,0.0,0.0,0.0,0.0,0.0,0.0,0.0,0.00023262286635622643,-0.00597554725385,-9.810947812759933,0.0,0.0,0.0,0.0,0.0,0.0,0.0,0.0,0.0
1710484726.3081572,744,1710484726,308012962,map,0.00039584191268541994,1.1053586145770845e-05,2.3001235272367177e-08,0.9999999215934958,0.0,0.0,0.0,0.0,0.0,0.0,0.0,0.0,0.0,-0.0,0.0,-0.0,0.0,0.0,0.0,0.0,0.0,0.0,0.0,0.0,0.0,4.020078834280778e-05,-0.006619634318027435,-9.810479823188418,0.0,0.0,0.0,0.0,0.0,0.0,0.0,0.0,0.0
1710484726.325137,745,1710484726,325000048,map,0.00039584191268541994,1.1053586145770845e-05,2.3001235272367177e-08,0.9999999215934958,0.0,0.0,0.0,0.0,0.0,0.0,0.0,0.0,0.0,-0.0,0.0,-0.0,0.0,0.0,0.0,0.0,0.0,0.0,0.0,0.0,0.0,1.1303201171072939e-05,-0.006659089560558374,-9.810466319011727,0.0,0.0,0.0,0.0,0.0,0.0,0.0,0.0,0.0
1710484726.3420205,746,1710484726,341860056,map,0.00039584191268541994,1.1053586145770845e-05,2.3001235272367177e-08,0.9999999215934958,0.0,0.0,0.0,0.0,0.0,0.0,0.0,0.0,0.0,-0.0,0.0,-0.0,0.0,0.0,0.0,0.0,0.0,0.0,0.0,0.0,0.0,2.2581516916275506e-05,-0.006695079401066481,-9.810465387689197,0.0,0.0,0.0,0.0,0.0,0.0,0.0,0.0,0.0
1710484726.3586977,747,1710484726,358560085,map,0.00039584191268541994,1.1053586145770845e-05,2.3001235272367177e-08,0.9999999215934958,0.0,0.0,0.0,0.0,0.0,0.0,0.0,0.0,0.0,-0.0,0.0,-0.0,0.0,0.0,0.0,0.0,0.0,0.0,0.0,0.0,0.0,1.7493566652584356e-05,-0.006715416611126859,-9.810465387689197,0.0,0.0,0.0,0.0,0.0,0.0,0.0,0.0,0.0
1710484726.3752105,748,1710484726,375070572,map,0.00039584191268541994,1.1053586145770845e-05,2.3001235272367177e-08,0.9999999215934958,0.0,0.0,0.0,0.0,0.0,0.0,0.0,0.0,0.0,-0.0,0.0,-0.0,0.0,0.0,0.0,0.0,0.0,0.0,0.0,0.0,0.0,1.659180092225123e-05,-0.006727150456464455,-9.809991810182499,0.0,0.0,0.0,0.0,0.0,0.0,0.0,0.0,0.0
1710484726.3924415,749,1710484726,392285347,map,0.00039584191268541994,1.1053586145770845e-05,2.3001235272367177e-08,0.9999999215934958,0.0,0.0,0.0,0.0,0.0,0.0,0.0,0.0,0.0,-0.0,0.0,-0.0,0.0,0.0,0.0,0.0,0.0,0.0,0.0,0.0,0.0,1.8914865219417222e-05,-0.006754139028336652,-9.810869581667381,0.0,0.0,0.0,0.0,0.0,0.0,0.0,0.0,0.0
1710484726.4091828,750,1710484726,409053802,map,0.00039584191268541994,1.1053586145770845e-05,2.3001235272367177e-08,0.9999999215934958,0.0,0.0,0.0,0.0,0.0,0.0,0.0,0.0,0.0,-0.0,0.0,-0.0,0.0,0.0,0.0,0.0,0.0,0.0,0.0,0.0,0.0,2.0520084211952163e-05,-0.006757927300963278,-9.810547809733135,0.0,0.0,0.0,0.0,0.0,0.0,0.0,0.0,0.0
1710484726.425298,751,1710484726,425177574,map,0.00039584191268541994,1.1053586145770845e-05,2.3001235272367177e-08,0.9999999215934958,0.0,0.0,0.0,0.0,0.0,0.0,0.0,0.0,0.0,-0.0,0.0,-0.0,0.0,0.0,0.0,0.0,0.0,0.0,0.0,0.0,0.0,1.8855480724918265e-05,-0.006761189203556255,-9.810467250334257,0.0,0.0,0.0,0.0,0.0,0.0,0.0,0.0,0.0
1710484726.4425068,752,1710484726,442404985,map,0.00039584191268541994,1.1053586145770845e-05,2.3001235272367177e-08,0.9999999215934958,0.0,0.0,0.0,0.0,0.0,0.0,0.0,0.0,0.0,-0.0,0.0,-0.0,0.0,0.0,0.0,0.0,0.0,0.0,0.0,0.0,0.0,1.7122461745642847e-05,-0.006764441101707987,-9.810465387689197,0.0,0.0,0.0,0.0,0.0,0.0,0.0,0.0,0.0
1710484726.4579823,753,1710484726,457849264,map,0.00039584191268541994,1.1053586145770845e-05,2.3001235272367177e-08,0.9999999215934958,0.0,0.0,0.0,0.0,0.0,0.0,0.0,0.0,0.0,-0.0,0.0,-0.0,0.0,0.0,0.0,0.0,0.0,0.0,0.0,0.0,0.0,2.0225196556120257e-05,-0.006767373994608225,-9.810057002759626,0.0,0.0,0.0,0.0,0.0,0.0,0.0,0.0,0.0
1710484726.4747107,754,1710484726,474547863,map,0.00039584191268541994,1.1053586145770845e-05,2.3001235272367177e-08,0.9999999215934958,0.0,0.0,0.0,0.0,0.0,0.0,0.0,0.0,0.0,-0.0,0.0,-0.0,0.0,0.0,0.0,0.0,0.0,0.0,0.0,0.0,0.0,1.8946774803986166e-05,-0.0067858562903124415,-9.8108011294614,0.0,0.0,0.0,0.0,0.0,0.0,0.0,0.0,0.0
1710484726.4928198,755,1710484726,492684841,map,0.00039584191268541994,1.1053586145770845e-05,2.3001235272367177e-08,0.9999999215934958,0.0,0.0,0.0,0.0,0.0,0.0,0.0,0.0,0.0,-0.0,0.0,-0.0,0.0,0.0,0.0,0.0,0.0,0.0,0.0,0.0,0.0,1.8073333970290338e-05,-0.0067741053919499975,-9.810545947088075,0.0,0.0,0.0,0.0,0.0,0.0,0.0,0.0,0.0
1710484726.5089746,756,1710484726,508830786,map,0.00039584191268541994,1.1053586145770845e-05,2.3001235272367177e-08,0.9999999215934958,0.0,0.0,0.0,0.0,0.0,0.0,0.0,0.0,0.0,-0.0,0.0,-0.0,0.0,0.0,0.0,0.0,0.0,0.0,0.0,0.0,0.0,2.01308080635851e-05,-0.006776707683541843,-9.810467715995523,0.0,0.0,0.0,0.0,0.0,0.0,0.0,0.0,0.0
1710484726.5255122,757,1710484726,525306225,map,0.0003948845131867188,1.1591227598515228e-05,2.3286361881679566e-08,0.999999921965929,0.0,0.0,0.0,0.0,0.0,0.0,0.0,0.0,0.0,-0.00019147991237569026,0.00010752830826003855,1.2447519467639651e-08,0.0,0.0,0.0,0.0,0.0,0.0,0.0,0.0,0.0,1.8484013441198734e-05,-0.0067867971625367365,-9.809991810182499,0.0,0.0,0.0,0.0,0.0,0.0,0.0,0.0,0.0
1710484726.5426068,758,1710484726,542450905,map,0.0003948845131867188,1.1591227598515228e-05,2.3286361881679566e-08,0.999999921965929,0.0,0.0,0.0,0.0,0.0,0.0,0.0,0.0,0.0,-0.0,0.0,-0.0,0.0,0.0,0.0,0.0,0.0,0.0,0.0,0.0,0.0,-0.0004259482590830686,-0.007574629175380839,-9.810526389314937,0.0,0.0,0.0,0.0,0.0,0.0,0.0,0.0,0.0
1710484726.5591621,759,1710484726,558787584,map,0.0003948845131867188,1.1591227598515228e-05,2.3286361881679566e-08,0.999999921965929,0.0,0.0,0.0,0.0,0.0,0.0,0.0,0.0,0.0,-0.0,0.0,-0.0,0.0,0.0,0.0,0.0,0.0,0.0,0.0,0.0,0.0,0.0004742563307740396,-0.00568750370164326,-9.810407180031048,0.0,0.0,0.0,0.0,0.0,0.0,0.0,0.0,0.0
1710484726.5756426,760,1710484726,575522184,map,0.0003948845131867188,1.1591227598515228e-05,2.3286361881679566e-08,0.999999921965929,0.0,0.0,0.0,0.0,0.0,0.0,0.0,0.0,0.0,-0.0,0.0,-0.0,0.0,0.0,0.0,0.0,0.0,0.0,0.0,0.0,0.0,1.385508975021757e-05,-0.006519858661255877,-9.810947812759933,0.0,0.0,0.0,0.0,0.0,0.0,0.0,0.0,0.0
