Time,header.seq,header.stamp.secs,header.stamp.nsecs,header.frame_id,orientation.x,orientation.y,orientation.z,orientation.w,orientation_covariance_0,orientation_covariance_1,orientation_covariance_2,orientation_covariance_3,orientation_covariance_4,orientation_covariance_5,orientation_covariance_6,orientation_covariance_7,orientation_covariance_8,angular_velocity.x,angular_velocity.y,angular_velocity.z,angular_velocity_covariance_0,angular_velocity_covariance_1,angular_velocity_covariance_2,angular_velocity_covariance_3,angular_velocity_covariance_4,angular_velocity_covariance_5,angular_velocity_covariance_6,angular_velocity_covariance_7,angular_velocity_covariance_8,linear_acceleration.x,linear_acceleration.y,linear_acceleration.z,linear_acceleration_covariance_0,linear_acceleration_covariance_1,linear_acceleration_covariance_2,linear_acceleration_covariance_3,linear_acceleration_covariance_4,linear_acceleration_covariance_5,linear_acceleration_covariance_6,linear_acceleration_covariance_7,linear_acceleration_covariance_8
1710444410.453504,212,1710444410,453398943,map,0.0004086122062682996,6.0238087248861995e-06,1.59757293936501e-08,0.9999999164998857,0.0,0.0,0.0,0.0,0.0,0.0,0.0,0.0,0.0,-0.0,0.0,-0.0,0.0,0.0,0.0,0.0,0.0,0.0,0.0,0.0,0.0,1.7401708580246732e-05,-0.006744726213367738,-9.810475632237031,0.0,0.0,0.0,0.0,0.0,0.0,0.0,0.0,0.0
1710444410.4698253,213,1710444410,469697952,map,0.0004086122062682996,6.0238087248861995e-06,1.59757293936501e-08,0.9999999164998857,0.0,0.0,0.0,0.0,0.0,0.0,0.0,0.0,0.0,-0.0,0.0,-0.0,0.0,0.0,0.0,0.0,0.0,0.0,0.0,0.0,0.0,1.6303072783467383e-05,-0.0067373377061351455,-9.810476097898295,0.0,0.0,0.0,0.0,0.0,0.0,0.0,0.0,0.0
1710444410.4867368,214,1710444410,486564398,map,0.0004086122062682996,6.0238087248861995e-06,1.59757293936501e-08,0.9999999164998857,0.0,0.0,0.0,0.0,0.0,0.0,0.0,0.0,0.0,-0.0,0.0,-0.0,0.0,0.0,0.0,0.0,0.0,0.0,0.0,0.0,0.0,1.8110778682507947e-05,-0.006752098349696476,-9.810475632237031,0.0,0.0,0.0,0.0,0.0,0.0,0.0,0.0,0.0
1710444410.503693,215,1710444410,503479958,map,0.0004086122062682996,6.0238087248861995e-06,1.59757293936501e-08,0.9999999164998857,0.0,0.0,0.0,0.0,0.0,0.0,0.0,0.0,0.0,-0.0,0.0,-0.0,0.0,0.0,0.0,0.0,0.0,0.0,0.0,0.0,0.0,1.7434679537976805e-05,-0.00673755780384252,-9.810476097898295,0.0,0.0,0.0,0.0,0.0,0.0,0.0,0.0,0.0
1710444410.5197775,216,1710444410,519668341,map,0.0004086122062682996,6.0238087248861995e-06,1.59757293936501e-08,0.9999999164998857,0.0,0.0,0.0,0.0,0.0,0.0,0.0,0.0,0.0,-0.0,0.0,-0.0,0.0,0.0,0.0,0.0,0.0,0.0,0.0,0.0,0.0,1.6786295999715984e-05,-0.006751782300302622,-9.810002054730333,0.0,0.0,0.0,0.0,0.0,0.0,0.0,0.0,0.0
1710444410.5363998,217,1710444410,536273718,map,0.0004086122062682996,6.0238087248861995e-06,1.59757293936501e-08,0.9999999164998857,0.0,0.0,0.0,0.0,0.0,0.0,0.0,0.0,0.0,-0.0,0.0,-0.0,0.0,0.0,0.0,0.0,0.0,0.0,0.0,0.0,0.0,1.690272463868915e-05,-0.006737886586161595,-9.810945950114872,0.0,0.0,0.0,0.0,0.0,0.0,0.0,0.0,0.0
1710444410.5532997,218,1710444410,553196669,map,0.0004086122062682996,6.0238087248861995e-06,1.59757293936501e-08,0.9999999164998857,0.0,0.0,0.0,0.0,0.0,0.0,0.0,0.0,0.0,-0.0,0.0,-0.0,0.0,0.0,0.0,0.0,0.0,0.0,0.0,0.0,0.0,1.647238001032422e-05,-0.006752124042920581,-9.810489602074986,0.0,0.0,0.0,0.0,0.0,0.0,0.0,0.0,0.0
1710444410.5708566,219,1710444410,570747375,map,0.0004086122062682996,6.0238087248861995e-06,1.59757293936501e-08,0.9999999164998857,0.0,0.0,0.0,0.0,0.0,0.0,0.0,0.0,0.0,-0.0,0.0,-0.0,0.0,0.0,0.0,0.0,0.0,0.0,0.0,0.0,0.0,1.904767453220688e-05,-0.0067375678082837644,-9.810476097898295,0.0,0.0,0.0,0.0,0.0,0.0,0.0,0.0,0.0
1710444410.5869465,220,1710444410,586733341,map,0.0004086122062682996,6.0238087248861995e-06,1.59757293936501e-08,0.9999999164998857,0.0,0.0,0.0,0.0,0.0,0.0,0.0,0.0,0.0,-0.0,0.0,-0.0,0.0,0.0,0.0,0.0,0.0,0.0,0.0,0.0,0.0,1.6447312951975644e-05,-0.006744720074278792,-9.810475632237031,0.0,0.0,0.0,0.0,0.0,0.0,0.0,0.0,0.0
1710444410.6072252,221,1710444410,607088566,map,0.0004086122062682996,6.0238087248861995e-06,1.59757293936501e-08,0.9999999164998857,0.0,0.0,0.0,0.0,0.0,0.0,0.0,0.0,0.0,-0.0,0.0,-0.0,0.0,0.0,0.0,0.0,0.0,0.0,0.0,0.0,0.0,1.6975306575699586e-05,-0.0067449294854239296,-9.810475632237031,0.0,0.0,0.0,0.0,0.0,0.0,0.0,0.0,0.0
1710444410.623123,222,1710444410,623020172,map,0.0004086122062682996,6.0238087248861995e-06,1.59757293936501e-08,0.9999999164998857,0.0,0.0,0.0,0.0,0.0,0.0,0.0,0.0,0.0,-0.0,0.0,-0.0,0.0,0.0,0.0,0.0,0.0,0.0,0.0,0.0,0.0,1.6970338994034153e-05,-0.006744933350776228,-9.810475632237031,0.0,0.0,0.0,0.0,0.0,0.0,0.0,0.0,0.0
1710444410.637378,223,1710444410,637277365,map,0.0004086122062682996,6.0238087248861995e-06,1.59757293936501e-08,0.9999999164998857,0.0,0.0,0.0,0.0,0.0,0.0,0.0,0.0,0.0,-0.0,0.0,-0.0,0.0,0.0,0.0,0.0,0.0,0.0,0.0,0.0,0.0,1.6503258419796867e-05,-0.006744931077039582,-9.810475632237031,0.0,0.0,0.0,0.0,0.0,0.0,0.0,0.0,0.0
1710444410.6535718,224,1710444410,653454065,map,0.0004086122062682996,6.0238087248861995e-06,1.59757293936501e-08,0.9999999164998857,0.0,0.0,0.0,0.0,0.0,0.0,0.0,0.0,0.0,-0.0,0.0,-0.0,0.0,0.0,0.0,0.0,0.0,0.0,0.0,0.0,0.0,1.9088767881199314e-05,-0.006737202418804682,-9.810002054730333,0.0,0.0,0.0,0.0,0.0,0.0,0.0,0.0,0.0
1710444410.6703672,225,1710444410,670258045,map,0.0004086122062682996,6.0238087248861995e-06,1.59757293936501e-08,0.9999999164998857,0.0,0.0,0.0,0.0,0.0,0.0,0.0,0.0,0.0,-0.0,0.0,-0.0,0.0,0.0,0.0,0.0,0.0,0.0,0.0,0.0,0.0,1.653243152678469e-05,-0.0067526144879152174,-9.810945484453608,0.0,0.0,0.0,0.0,0.0,0.0,0.0,0.0,0.0
1710444410.6866283,226,1710444410,686506033,map,0.0004086122062682996,6.0238087248861995e-06,1.59757293936501e-08,0.9999999164998857,0.0,0.0,0.0,0.0,0.0,0.0,0.0,0.0,0.0,-0.0,0.0,-0.0,0.0,0.0,0.0,0.0,0.0,0.0,0.0,0.0,0.0,1.6620598329785365e-05,-0.006737756983172748,-9.810489602074986,0.0,0.0,0.0,0.0,0.0,0.0,0.0,0.0,0.0
1710444410.7039473,227,1710444410,703829527,map,0.0004086122062682996,6.0238087248861995e-06,1.59757293936501e-08,0.9999999164998857,0.0,0.0,0.0,0.0,0.0,0.0,0.0,0.0,0.0,-0.0,0.0,-0.0,0.0,0.0,0.0,0.0,0.0,0.0,0.0,0.0,0.0,1.738391037373973e-05,-0.0067522927541797464,-9.810476097898295,0.0,0.0,0.0,0.0,0.0,0.0,0.0,0.0,0.0
1710444410.7204685,228,1710444410,720358610,map,0.0004086122062682996,6.0238087248861995e-06,1.59757293936501e-08,0.9999999164998857,0.0,0.0,0.0,0.0,0.0,0.0,0.0,0.0,0.0,-0.0,0.0,-0.0,0.0,0.0,0.0,0.0,0.0,0.0,0.0,0.0,0.0,1.654201674783482e-05,-0.006737742658631875,-9.810476097898295,0.0,0.0,0.0,0.0,0.0,0.0,0.0,0.0,0.0
1710444410.7371304,229,1710444410,737006426,map,0.0004086122062682996,6.0238087248861995e-06,1.59757293936501e-08,0.9999999164998857,0.0,0.0,0.0,0.0,0.0,0.0,0.0,0.0,0.0,-0.0,0.0,-0.0,0.0,0.0,0.0,0.0,0.0,0.0,0.0,0.0,0.0,1.7797930283525956e-05,-0.006744887876043299,-9.810475632237031,0.0,0.0,0.0,0.0,0.0,0.0,0.0,0.0,0.0
1710444410.7540295,230,1710444410,753809690,map,0.0004086122062682996,6.0238087248861995e-06,1.59757293936501e-08,0.9999999164998857,0.0,0.0,0.0,0.0,0.0,0.0,0.0,0.0,0.0,-0.0,0.0,-0.0,0.0,0.0,0.0,0.0,0.0,0.0,0.0,0.0,0.0,1.8094613836037196e-05,-0.0067450972871884365,-9.810475632237031,0.0,0.0,0.0,0.0,0.0,0.0,0.0,0.0,0.0
1710444410.7709448,231,1710444410,770726919,map,0.0004086122062682996,6.0238087248861995e-06,1.59757293936501e-08,0.9999999164998857,0.0,0.0,0.0,0.0,0.0,0.0,0.0,0.0,0.0,-0.0,0.0,-0.0,0.0,0.0,0.0,0.0,0.0,0.0,0.0,0.0,0.0,1.656362790411649e-05,-0.006737699685009258,-9.810476097898295,0.0,0.0,0.0,0.0,0.0,0.0,0.0,0.0,0.0
1710444410.7874882,232,1710444410,787333488,map,0.0004086122062682996,6.0238087248861995e-06,1.59757293936501e-08,0.9999999164998857,0.0,0.0,0.0,0.0,0.0,0.0,0.0,0.0,0.0,-0.0,0.0,-0.0,0.0,0.0,0.0,0.0,0.0,0.0,0.0,0.0,0.0,1.6934390862382652e-05,-0.006744727122862396,-9.810001589069067,0.0,0.0,0.0,0.0,0.0,0.0,0.0,0.0,0.0
1710444410.8037677,233,1710444410,803560734,map,0.0004086122062682996,6.0238087248861995e-06,1.59757293936501e-08,0.9999999164998857,0.0,0.0,0.0,0.0,0.0,0.0,0.0,0.0,0.0,-0.0,0.0,-0.0,0.0,0.0,0.0,0.0,0.0,0.0,0.0,0.0,0.0,1.719532079430707e-05,-0.006745593416524688,-9.810945018792342,0.0,0.0,0.0,0.0,0.0,0.0,0.0,0.0,0.0
1710444410.82082,234,1710444410,820667982,map,0.0004086122062682996,6.0238087248861995e-06,1.59757293936501e-08,0.9999999164998857,0.0,0.0,0.0,0.0,0.0,0.0,0.0,0.0,0.0,-0.0,0.0,-0.0,0.0,0.0,0.0,0.0,0.0,0.0,0.0,0.0,0.0,1.6609381525055743e-05,-0.006737881356567308,-9.810489602074986,0.0,0.0,0.0,0.0,0.0,0.0,0.0,0.0,0.0
1710444410.8370528,235,1710444410,836915731,map,0.0004086122062682996,6.0238087248861995e-06,1.59757293936501e-08,0.9999999164998857,0.0,0.0,0.0,0.0,0.0,0.0,0.0,0.0,0.0,-0.0,0.0,-0.0,0.0,0.0,0.0,0.0,0.0,0.0,0.0,0.0,0.0,1.825073161398795e-05,-0.006745220523714673,-9.810475632237031,0.0,0.0,0.0,0.0,0.0,0.0,0.0,0.0,0.0
1710444410.8538346,236,1710444410,853704453,map,0.0004086122062682996,6.0238087248861995e-06,1.59757293936501e-08,0.9999999164998857,0.0,0.0,0.0,0.0,0.0,0.0,0.0,0.0,0.0,-0.0,0.0,-0.0,0.0,0.0,0.0,0.0,0.0,0.0,0.0,0.0,0.0,1.7686841372958402e-05,-0.006745431526475463,-9.810475632237031,0.0,0.0,0.0,0.0,0.0,0.0,0.0,0.0,0.0
1710444410.870621,237,1710444410,870537996,map,0.0004086122062682996,6.0238087248861995e-06,1.59757293936501e-08,0.9999999164998857,0.0,0.0,0.0,0.0,0.0,0.0,0.0,0.0,0.0,-0.0,0.0,-0.0,0.0,0.0,0.0,0.0,0.0,0.0,0.0,0.0,0.0,1.666039405016825e-05,-0.006738034833790943,-9.810476097898295,0.0,0.0,0.0,0.0,0.0,0.0,0.0,0.0,0.0
1710444410.8871624,238,1710444410,886871576,map,0.0004086122062682996,6.0238087248861995e-06,1.59757293936501e-08,0.9999999164998857,0.0,0.0,0.0,0.0,0.0,0.0,0.0,0.0,0.0,-0.0,0.0,-0.0,0.0,0.0,0.0,0.0,0.0,0.0,0.0,0.0,0.0,1.664153091778661e-05,-0.006737981855727081,-9.810476097898295,0.0,0.0,0.0,0.0,0.0,0.0,0.0,0.0,0.0
1710444410.9041357,239,1710444410,903996706,map,0.0004086122062682996,6.0238087248861995e-06,1.59757293936501e-08,0.9999999164998857,0.0,0.0,0.0,0.0,0.0,0.0,0.0,0.0,0.0,-0.0,0.0,-0.0,0.0,0.0,0.0,0.0,0.0,0.0,0.0,0.0,0.0,1.7556698371658042e-05,-0.00674554157532915,-9.810475632237031,0.0,0.0,0.0,0.0,0.0,0.0,0.0,0.0,0.0
1710444410.9210422,240,1710444410,920925617,map,0.0004086122062682996,6.0238087248861995e-06,1.59757293936501e-08,0.9999999164998857,0.0,0.0,0.0,0.0,0.0,0.0,0.0,0.0,0.0,-0.0,0.0,-0.0,0.0,0.0,0.0,0.0,0.0,0.0,0.0,0.0,0.0,1.67179107055393e-05,-0.0067454235683971995,-9.810001589069067,0.0,0.0,0.0,0.0,0.0,0.0,0.0,0.0,0.0
1710444410.937034,241,1710444410,936903000,map,0.0004086122062682996,6.0238087248861995e-06,1.59757293936501e-08,0.9999999164998857,0.0,0.0,0.0,0.0,0.0,0.0,0.0,0.0,0.0,-0.0,0.0,-0.0,0.0,0.0,0.0,0.0,0.0,0.0,0.0,0.0,0.0,1.7161728111712738e-05,-0.006738670797930951,-9.810945950114872,0.0,0.0,0.0,0.0,0.0,0.0,0.0,0.0,0.0
1710444410.9536784,242,1710444410,953577518,map,0.0004086122062682996,6.0238087248861995e-06,1.59757293936501e-08,0.9999999164998857,0.0,0.0,0.0,0.0,0.0,0.0,0.0,0.0,0.0,-0.0,0.0,-0.0,0.0,0.0,0.0,0.0,0.0,0.0,0.0,0.0,0.0,1.8966692204101917e-05,-0.006738302452594228,-9.810489602074986,0.0,0.0,0.0,0.0,0.0,0.0,0.0,0.0,0.0
1710444410.970304,243,1710444410,970212221,map,0.0004086122062682996,6.0238087248861995e-06,1.59757293936501e-08,0.9999999164998857,0.0,0.0,0.0,0.0,0.0,0.0,0.0,0.0,0.0,-0.0,0.0,-0.0,0.0,0.0,0.0,0.0,0.0,0.0,0.0,0.0,0.0,1.669786451955881e-05,-0.006738454565575875,-9.810476097898295,0.0,0.0,0.0,0.0,0.0,0.0,0.0,0.0,0.0
1710444410.9866397,244,1710444410,986526728,map,0.0004086122062682996,6.0238087248861995e-06,1.59757293936501e-08,0.9999999164998857,0.0,0.0,0.0,0.0,0.0,0.0,0.0,0.0,0.0,-0.0,0.0,-0.0,0.0,0.0,0.0,0.0,0.0,0.0,0.0,0.0,0.0,1.683499926104696e-05,-0.006753419845435385,-9.810476097898295,0.0,0.0,0.0,0.0,0.0,0.0,0.0,0.0,0.0
1710444411.0033808,245,1710444411,3286839,map,0.0004086122062682996,6.0238087248861995e-06,1.59757293936501e-08,0.9999999164998857,0.0,0.0,0.0,0.0,0.0,0.0,0.0,0.0,0.0,-0.0,0.0,-0.0,0.0,0.0,0.0,0.0,0.0,0.0,0.0,0.0,0.0,1.7125141379807807e-05,-0.0067388665666562085,-9.810476097898295,0.0,0.0,0.0,0.0,0.0,0.0,0.0,0.0,0.0
1710444411.0204787,246,1710444411,20361423,map,0.0004086122062682996,6.0238087248861995e-06,1.59757293936501e-08,0.9999999164998857,0.0,0.0,0.0,0.0,0.0,0.0,0.0,0.0,0.0,-0.0,0.0,-0.0,0.0,0.0,0.0,0.0,0.0,0.0,0.0,0.0,0.0,1.7308980093099148e-05,-0.00673860122158957,-9.810476097898295,0.0,0.0,0.0,0.0,0.0,0.0,0.0,0.0,0.0
1710444411.0372465,247,1710444411,37119627,map,0.0004086122062682996,6.0238087248861995e-06,1.59757293936501e-08,0.9999999164998857,0.0,0.0,0.0,0.0,0.0,0.0,0.0,0.0,0.0,-0.0,0.0,-0.0,0.0,0.0,0.0,0.0,0.0,0.0,0.0,0.0,0.0,1.6770296354423447e-05,-0.006738755608307862,-9.810476097898295,0.0,0.0,0.0,0.0,0.0,0.0,0.0,0.0,0.0
1710444411.0542238,248,1710444411,54054737,map,0.0004086122062682996,6.0238087248861995e-06,1.59757293936501e-08,0.9999999164998857,0.0,0.0,0.0,0.0,0.0,0.0,0.0,0.0,0.0,-0.0,0.0,-0.0,0.0,0.0,0.0,0.0,0.0,0.0,0.0,0.0,0.0,1.683260562031956e-05,-0.006738595991995283,-9.810002054730333,0.0,0.0,0.0,0.0,0.0,0.0,0.0,0.0,0.0
1710444411.0707176,249,1710444411,70505619,map,0.0004086122062682996,6.0238087248861995e-06,1.59757293936501e-08,0.9999999164998857,0.0,0.0,0.0,0.0,0.0,0.0,0.0,0.0,0.0,-0.0,0.0,-0.0,0.0,0.0,0.0,0.0,0.0,0.0,0.0,0.0,0.0,1.845291831620197e-05,-0.006739412945572347,-9.810945484453608,0.0,0.0,0.0,0.0,0.0,0.0,0.0,0.0,0.0
1710444411.0872464,250,1710444411,87117434,map,0.0004086122062682996,6.0238087248861995e-06,1.59757293936501e-08,0.9999999164998857,0.0,0.0,0.0,0.0,0.0,0.0,0.0,0.0,0.0,-0.0,0.0,-0.0,0.0,0.0,0.0,0.0,0.0,0.0,0.0,0.0,0.0,1.787425766875437e-05,-0.0067466575252752205,-9.810489136413722,0.0,0.0,0.0,0.0,0.0,0.0,0.0,0.0,0.0
1710444411.1040313,251,1710444411,103840828,map,0.0004086122062682996,6.0238087248861995e-06,1.59757293936501e-08,0.9999999164998857,0.0,0.0,0.0,0.0,0.0,0.0,0.0,0.0,0.0,-0.0,0.0,-0.0,0.0,0.0,0.0,0.0,0.0,0.0,0.0,0.0,0.0,1.680258163844608e-05,-0.006746849883395509,-9.810475632237031,0.0,0.0,0.0,0.0,0.0,0.0,0.0,0.0,0.0
1710444411.1204023,252,1710444411,120259285,map,0.0004086122062682996,6.0238087248861995e-06,1.59757293936501e-08,0.9999999164998857,0.0,0.0,0.0,0.0,0.0,0.0,0.0,0.0,0.0,-0.0,0.0,-0.0,0.0,0.0,0.0,0.0,0.0,0.0,0.0,0.0,0.0,1.6831524707234125e-05,-0.006739434773444153,-9.810476097898295,0.0,0.0,0.0,0.0,0.0,0.0,0.0,0.0,0.0
1710444411.1369162,253,1710444411,136794090,map,0.0004086122062682996,6.0238087248861995e-06,1.59757293936501e-08,0.9999999164998857,0.0,0.0,0.0,0.0,0.0,0.0,0.0,0.0,0.0,-0.0,0.0,-0.0,0.0,0.0,0.0,0.0,0.0,0.0,0.0,0.0,0.0,1.7289097331940122e-05,-0.006739362013871467,-9.810476097898295,0.0,0.0,0.0,0.0,0.0,0.0,0.0,0.0,0.0
1710444411.1537101,254,1710444411,153574467,map,0.0004086122062682996,6.0238087248861995e-06,1.59757293936501e-08,0.9999999164998857,0.0,0.0,0.0,0.0,0.0,0.0,0.0,0.0,0.0,-0.0,0.0,-0.0,0.0,0.0,0.0,0.0,0.0,0.0,0.0,0.0,0.0,1.740182404343581e-05,-0.006739504577159198,-9.810476097898295,0.0,0.0,0.0,0.0,0.0,0.0,0.0,0.0,0.0
1710444411.1702216,255,1710444411,170074940,map,0.0004086122062682996,6.0238087248861995e-06,1.59757293936501e-08,0.9999999164998857,0.0,0.0,0.0,0.0,0.0,0.0,0.0,0.0,0.0,-0.0,0.0,-0.0,0.0,0.0,0.0,0.0,0.0,0.0,0.0,0.0,0.0,1.6874570272300337e-05,-0.006739652824788546,-9.810476097898295,0.0,0.0,0.0,0.0,0.0,0.0,0.0,0.0,0.0
1710444411.1869705,256,1710444411,186777592,map,0.0004086122062682996,6.0238087248861995e-06,1.59757293936501e-08,0.9999999164998857,0.0,0.0,0.0,0.0,0.0,0.0,0.0,0.0,0.0,-0.0,0.0,-0.0,0.0,0.0,0.0,0.0,0.0,0.0,0.0,0.0,0.0,1.6909157714677483e-05,-0.006739518901700071,-9.810067712968724,0.0,0.0,0.0,0.0,0.0,0.0,0.0,0.0,0.0
1710444411.2034378,257,1710444411,203265190,map,0.0004086122062682996,6.0238087248861995e-06,1.59757293936501e-08,0.9999999164998857,0.0,0.0,0.0,0.0,0.0,0.0,0.0,0.0,0.0,-0.0,0.0,-0.0,0.0,0.0,0.0,0.0,0.0,0.0,0.0,0.0,0.0,1.8595821776252072e-05,-0.006740181468558842,-9.810811374009234,0.0,0.0,0.0,0.0,0.0,0.0,0.0,0.0,0.0
1710444411.220478,258,1710444411,220237970,map,0.0004086122062682996,6.0238087248861995e-06,1.59757293936501e-08,0.9999999164998857,0.0,0.0,0.0,0.0,0.0,0.0,0.0,0.0,0.0,-0.0,0.0,-0.0,0.0,0.0,0.0,0.0,0.0,0.0,0.0,0.0,0.0,1.7947201094364454e-05,-0.006740153501598092,-9.810556191635909,0.0,0.0,0.0,0.0,0.0,0.0,0.0,0.0,0.0
1710444411.2373343,259,1710444411,237210274,map,0.0004086122062682996,6.0238087248861995e-06,1.59757293936501e-08,0.9999999164998857,0.0,0.0,0.0,0.0,0.0,0.0,0.0,0.0,0.0,-0.0,0.0,-0.0,0.0,0.0,0.0,0.0,0.0,0.0,0.0,0.0,0.0,1.695315185425088e-05,-0.006740247406921589,-9.810477960543357,0.0,0.0,0.0,0.0,0.0,0.0,0.0,0.0,0.0
1710444411.2538955,260,1710444411,253713131,map,0.0004086122062682996,6.0238087248861995e-06,1.59757293936501e-08,0.9999999164998857,0.0,0.0,0.0,0.0,0.0,0.0,0.0,0.0,0.0,-0.0,0.0,-0.0,0.0,0.0,0.0,0.0,0.0,0.0,0.0,0.0,0.0,1.6893015072666167e-05,-0.006740394062935284,-9.810476097898295,0.0,0.0,0.0,0.0,0.0,0.0,0.0,0.0,0.0
1710444411.2704427,261,1710444411,270268917,map,0.0004086122062682996,6.0238087248861995e-06,1.59757293936501e-08,0.9999999164998857,0.0,0.0,0.0,0.0,0.0,0.0,0.0,0.0,0.0,-0.0,0.0,-0.0,0.0,0.0,0.0,0.0,0.0,0.0,0.0,0.0,0.0,1.701003523843876e-05,-0.006740540718948979,-9.810476097898295,0.0,0.0,0.0,0.0,0.0,0.0,0.0,0.0,0.0
1710444411.2866201,262,1710444411,286504984,map,0.0004086122062682996,6.0238087248861995e-06,1.59757293936501e-08,0.9999999164998857,0.0,0.0,0.0,0.0,0.0,0.0,0.0,0.0,0.0,-0.0,0.0,-0.0,0.0,0.0,0.0,0.0,0.0,0.0,0.0,0.0,0.0,1.7832722895108308e-05,-0.00674068032637907,-9.810476097898295,0.0,0.0,0.0,0.0,0.0,0.0,0.0,0.0,0.0
1710444411.303395,263,1710444411,303224325,map,0.0004086122062682996,6.0238087248861995e-06,1.59757293936501e-08,0.9999999164998857,0.0,0.0,0.0,0.0,0.0,0.0,0.0,0.0,0.0,-0.0,0.0,-0.0,0.0,0.0,0.0,0.0,0.0,0.0,0.0,0.0,0.0,1.6992968002736452e-05,-0.0067408128852255575,-9.810476097898295,0.0,0.0,0.0,0.0,0.0,0.0,0.0,0.0,0.0
1710444411.3203068,264,1710444411,320152283,map,0.0004086122062682996,6.0238087248861995e-06,1.59757293936501e-08,0.9999999164998857,0.0,0.0,0.0,0.0,0.0,0.0,0.0,0.0,0.0,-0.0,0.0,-0.0,0.0,0.0,0.0,0.0,0.0,0.0,0.0,0.0,0.0,1.7033307288286377e-05,-0.006740660544870246,-9.810067712968724,0.0,0.0,0.0,0.0,0.0,0.0,0.0,0.0,0.0
1710444411.336907,265,1710444411,336791277,map,0.0004086122062682996,6.0238087248861995e-06,1.59757293936501e-08,0.9999999164998857,0.0,0.0,0.0,0.0,0.0,0.0,0.0,0.0,0.0,-0.0,0.0,-0.0,0.0,0.0,0.0,0.0,0.0,0.0,0.0,0.0,0.0,1.7017816569204157e-05,-0.006741303557593859,-9.810811839670498,0.0,0.0,0.0,0.0,0.0,0.0,0.0,0.0,0.0
1710444411.3535583,266,1710444411,353436708,map,0.0004086122062682996,6.0238087248861995e-06,1.59757293936501e-08,0.9999999164998857,0.0,0.0,0.0,0.0,0.0,0.0,0.0,0.0,0.0,-0.0,0.0,-0.0,0.0,0.0,0.0,0.0,0.0,0.0,0.0,0.0,0.0,1.7444277193524218e-05,-0.006741256491245277,-9.810556191635909,0.0,0.0,0.0,0.0,0.0,0.0,0.0,0.0,0.0
1710444411.3708036,267,1710444411,370569706,map,0.0004086122062682996,6.0238087248861995e-06,1.59757293936501e-08,0.9999999164998857,0.0,0.0,0.0,0.0,0.0,0.0,0.0,0.0,0.0,-0.0,0.0,-0.0,0.0,0.0,0.0,0.0,0.0,0.0,0.0,0.0,0.0,1.9316503034442527e-05,-0.006741332434049268,-9.810477960543357,0.0,0.0,0.0,0.0,0.0,0.0,0.0,0.0,0.0
1710444411.3870854,268,1710444411,386890411,map,0.0004086122062682996,6.0238087248861995e-06,1.59757293936501e-08,0.9999999164998857,0.0,0.0,0.0,0.0,0.0,0.0,0.0,0.0,0.0,-0.0,0.0,-0.0,0.0,0.0,0.0,0.0,0.0,0.0,0.0,0.0,0.0,1.7055048118611165e-05,-0.006741459535927804,-9.810476097898295,0.0,0.0,0.0,0.0,0.0,0.0,0.0,0.0,0.0
1710444411.4033463,269,1710444411,403238058,map,0.0004086122062682996,6.0238087248861995e-06,1.59757293936501e-08,0.9999999164998857,0.0,0.0,0.0,0.0,0.0,0.0,0.0,0.0,0.0,-0.0,0.0,-0.0,0.0,0.0,0.0,0.0,0.0,0.0,0.0,0.0,0.0,1.711093940755136e-05,-0.006741589138916651,-9.810476097898295,0.0,0.0,0.0,0.0,0.0,0.0,0.0,0.0,0.0
1710444411.4202118,270,1710444411,420112848,map,0.0004086122062682996,6.0238087248861995e-06,1.59757293936501e-08,0.9999999164998857,0.0,0.0,0.0,0.0,0.0,0.0,0.0,0.0,0.0,-0.0,0.0,-0.0,0.0,0.0,0.0,0.0,0.0,0.0,0.0,0.0,0.0,1.7073443180987853e-05,-0.006741718741905498,-9.810476097898295,0.0,0.0,0.0,0.0,0.0,0.0,0.0,0.0,0.0
1710444411.4372036,271,1710444411,437070131,map,0.0004086122062682996,6.0238087248861995e-06,1.59757293936501e-08,0.9999999164998857,0.0,0.0,0.0,0.0,0.0,0.0,0.0,0.0,0.0,-0.0,0.0,-0.0,0.0,0.0,0.0,0.0,0.0,0.0,0.0,0.0,0.0,1.7042657142066468e-05,-0.006756647641978665,-9.810475632237031,0.0,0.0,0.0,0.0,0.0,0.0,0.0,0.0,0.0
1710444411.4544377,272,1710444411,454313517,map,0.0004086122062682996,6.0238087248861995e-06,1.59757293936501e-08,0.9999999164998857,0.0,0.0,0.0,0.0,0.0,0.0,0.0,0.0,0.0,-0.0,0.0,-0.0,0.0,0.0,0.0,0.0,0.0,0.0,0.0,0.0,0.0,1.8029088476236106e-05,-0.0067417728568376824,-9.810067712968724,0.0,0.0,0.0,0.0,0.0,0.0,0.0,0.0,0.0
1710444411.4711485,273,1710444411,470974922,map,0.0004086122062682996,6.0238087248861995e-06,1.59757293936501e-08,0.9999999164998857,0.0,0.0,0.0,0.0,0.0,0.0,0.0,0.0,0.0,-0.0,0.0,-0.0,0.0,0.0,0.0,0.0,0.0,0.0,0.0,0.0,0.0,1.7072396906859144e-05,-0.006756782474561798,-9.810810908347968,0.0,0.0,0.0,0.0,0.0,0.0,0.0,0.0,0.0
1710444411.4863558,274,1710444411,486254930,map,0.0004086122062682996,6.0238087248861995e-06,1.59757293936501e-08,0.9999999164998857,0.0,0.0,0.0,0.0,0.0,0.0,0.0,0.0,0.0,-0.0,0.0,-0.0,0.0,0.0,0.0,0.0,0.0,0.0,0.0,0.0,0.0,1.718235960724401e-05,-0.0067420011399969846,-9.810556191635909,0.0,0.0,0.0,0.0,0.0,0.0,0.0,0.0,0.0
1710444411.503492,275,1710444411,503319263,map,0.0004086122062682996,6.0238087248861995e-06,1.59757293936501e-08,0.9999999164998857,0.0,0.0,0.0,0.0,0.0,0.0,0.0,0.0,0.0,-0.0,0.0,-0.0,0.0,0.0,0.0,0.0,0.0,0.0,0.0,0.0,0.0,1.711864968404656e-05,-0.006756442550933156,-9.810477494882091,0.0,0.0,0.0,0.0,0.0,0.0,0.0,0.0,0.0
1710444411.5200088,276,1710444411,519872189,map,0.0004086122062682996,6.0238087248861995e-06,1.59757293936501e-08,0.9999999164998857,0.0,0.0,0.0,0.0,0.0,0.0,0.0,0.0,0.0,-0.0,0.0,-0.0,0.0,0.0,0.0,0.0,0.0,0.0,0.0,0.0,0.0,1.7204596041103446e-05,-0.006741836521463783,-9.810476097898295,0.0,0.0,0.0,0.0,0.0,0.0,0.0,0.0,0.0
1710444411.5367558,277,1710444411,536619902,map,0.0004086122062682996,6.0238087248861995e-06,1.59757293936501e-08,0.9999999164998857,0.0,0.0,0.0,0.0,0.0,0.0,0.0,0.0,0.0,-0.0,0.0,-0.0,0.0,0.0,0.0,0.0,0.0,0.0,0.0,0.0,0.0,1.803838948020543e-05,-0.006756332047332139,-9.810475632237031,0.0,0.0,0.0,0.0,0.0,0.0,0.0,0.0,0.0
1710444411.5534296,278,1710444411,553256035,map,0.0004086122062682996,6.0238087248861995e-06,1.59757293936501e-08,0.9999999164998857,0.0,0.0,0.0,0.0,0.0,0.0,0.0,0.0,0.0,-0.0,0.0,-0.0,0.0,0.0,0.0,0.0,0.0,0.0,0.0,0.0,0.0,1.8911893374566062e-05,-0.0067417276094784186,-9.810476097898295,0.0,0.0,0.0,0.0,0.0,0.0,0.0,0.0,0.0
1710444411.5698717,279,1710444411,569776297,map,0.0004086122062682996,6.0238087248861995e-06,1.59757293936501e-08,0.9999999164998857,0.0,0.0,0.0,0.0,0.0,0.0,0.0,0.0,0.0,-0.0,0.0,-0.0,0.0,0.0,0.0,0.0,0.0,0.0,0.0,0.0,0.0,1.7209419737871725e-05,-0.006756224499588763,-9.810475166575765,0.0,0.0,0.0,0.0,0.0,0.0,0.0,0.0,0.0
1710444411.5865562,280,1710444411,586387396,map,0.0004086122062682996,6.0238087248861995e-06,1.59757293936501e-08,0.9999999164998857,0.0,0.0,0.0,0.0,0.0,0.0,0.0,0.0,0.0,-0.0,0.0,-0.0,0.0,0.0,0.0,0.0,0.0,0.0,0.0,0.0,0.0,1.725969241039577e-05,-0.006741626200823987,-9.810476097898295,0.0,0.0,0.0,0.0,0.0,0.0,0.0,0.0,0.0
1710444411.6029809,281,1710444411,602863312,map,0.0004086122062682996,6.0238087248861995e-06,1.59757293936501e-08,0.9999999164998857,0.0,0.0,0.0,0.0,0.0,0.0,0.0,0.0,0.0,-0.0,0.0,-0.0,0.0,0.0,0.0,0.0,0.0,0.0,0.0,0.0,0.0,1.715308524792115e-05,-0.006755796354978239,-9.810001589069067,0.0,0.0,0.0,0.0,0.0,0.0,0.0,0.0,0.0
1710444411.6205127,282,1710444411,620364428,map,0.0004086122062682996,6.0238087248861995e-06,1.59757293936501e-08,0.9999999164998857,0.0,0.0,0.0,0.0,0.0,0.0,0.0,0.0,0.0,-0.0,0.0,-0.0,0.0,0.0,0.0,0.0,0.0,0.0,0.0,0.0,0.0,1.7212541684868686e-05,-0.006741850846004656,-9.810945484453608,0.0,0.0,0.0,0.0,0.0,0.0,0.0,0.0,0.0
1710444411.6361833,283,1710444411,636074305,map,0.0004086122062682996,6.0238087248861995e-06,1.59757293936501e-08,0.9999999164998857,0.0,0.0,0.0,0.0,0.0,0.0,0.0,0.0,0.0,-0.0,0.0,-0.0,0.0,0.0,0.0,0.0,0.0,0.0,0.0,0.0,0.0,1.7262612740901033e-05,-0.006756034187831456,-9.810489136413722,0.0,0.0,0.0,0.0,0.0,0.0,0.0,0.0,0.0
1710444411.6534822,284,1710444411,653372765,map,0.0004086122062682996,6.0238087248861995e-06,1.59757293936501e-08,0.9999999164998857,0.0,0.0,0.0,0.0,0.0,0.0,0.0,0.0,0.0,-0.0,0.0,-0.0,0.0,0.0,0.0,0.0,0.0,0.0,0.0,0.0,0.0,1.8084446858149792e-05,-0.006741426339372766,-9.810476097898295,0.0,0.0,0.0,0.0,0.0,0.0,0.0,0.0,0.0
1710444411.6699536,285,1710444411,669842720,map,0.0004086122062682996,6.0238087248861995e-06,1.59757293936501e-08,0.9999999164998857,0.0,0.0,0.0,0.0,0.0,0.0,0.0,0.0,0.0,-0.0,0.0,-0.0,0.0,0.0,0.0,0.0,0.0,0.0,0.0,0.0,0.0,1.7302482180089257e-05,-0.006748522444072627,-9.810476097898295,0.0,0.0,0.0,0.0,0.0,0.0,0.0,0.0,0.0
1710444411.686506,286,1710444411,686308622,map,0.0004086122062682996,6.0238087248861995e-06,1.59757293936501e-08,0.9999999164998857,0.0,0.0,0.0,0.0,0.0,0.0,0.0,0.0,0.0,-0.0,0.0,-0.0,0.0,0.0,0.0,0.0,0.0,0.0,0.0,0.0,0.0,1.727685468118447e-05,-0.006748682060385207,-9.810476097898295,0.0,0.0,0.0,0.0,0.0,0.0,0.0,0.0,0.0
1710444411.7058833,287,1710444411,705734968,map,0.0004086122062682996,6.0238087248861995e-06,1.59757293936501e-08,0.9999999164998857,0.0,0.0,0.0,0.0,0.0,0.0,0.0,0.0,0.0,-0.0,0.0,-0.0,0.0,0.0,0.0,0.0,0.0,0.0,0.0,0.0,0.0,1.7285104081954818e-05,-0.006741238756099435,-9.810476097898295,0.0,0.0,0.0,0.0,0.0,0.0,0.0,0.0,0.0
1710444411.7202616,288,1710444411,720079184,map,0.0004086122062682996,6.0238087248861995e-06,1.59757293936501e-08,0.9999999164998857,0.0,0.0,0.0,0.0,0.0,0.0,0.0,0.0,0.0,-0.0,0.0,-0.0,0.0,0.0,0.0,0.0,0.0,0.0,0.0,0.0,0.0,1.73025514580027e-05,-0.006755947103717898,-9.810475166575765,0.0,0.0,0.0,0.0,0.0,0.0,0.0,0.0,0.0
1710444411.737035,289,1710444411,736881018,map,0.00041026625939649355,5.736465570328649e-06,-2.3774493639437674e-07,0.9999999158243129,0.0,0.0,0.0,0.0,0.0,0.0,0.0,0.0,0.0,0.00033081094340164225,-5.7489449147466925e-05,-5.071855870368238e-05,0.0,0.0,0.0,0.0,0.0,0.0,0.0,0.0,0.0,1.507193853633051e-06,-0.007917641675257147,-9.810000657746537,0.0,0.0,0.0,0.0,0.0,0.0,0.0,0.0,0.0
1710444411.7542021,290,1710444411,754101992,map,0.0004139840741572979,5.372904704857453e-06,-5.878499310269926e-07,0.9999999142939827,0.0,0.0,0.0,0.0,0.0,0.0,0.0,0.0,0.0,0.0007435634086468538,-7.274097589086597e-05,-6.998662589353056e-05,0.0,0.0,0.0,0.0,0.0,0.0,0.0,0.0,0.0,0.0023387713693955483,-0.009382931020796433,-9.811352006738119,0.0,0.0,0.0,0.0,0.0,0.0,0.0,0.0,0.0
1710444411.7705288,291,1710444411,770263910,map,0.0004201755057553454,5.549278911219914e-06,-5.740245295890254e-07,0.9999999117107063,0.0,0.0,0.0,0.0,0.0,0.0,0.0,0.0,0.0,0.0012382863912967859,3.5276730720801026e-05,2.7569113053559716e-06,0.0,0.0,0.0,0.0,0.0,0.0,0.0,0.0,0.0,0.0005922064477295958,-0.012041911642084603,-9.810960385614093,0.0,0.0,0.0,0.0,0.0,0.0,0.0,0.0,0.0
1710444411.7866166,292,1710444411,786473989,map,0.00042923171068422325,5.5438709099263125e-06,-6.025921337151457e-07,0.9999999078645162,0.0,0.0,0.0,0.0,0.0,0.0,0.0,0.0,0.0,0.0018112411813980193,-1.0830085268933738e-06,-5.703005411287243e-06,0.0,0.0,0.0,0.0,0.0,0.0,0.0,0.0,0.0,-0.0036566884173526923,-0.015117948997140258,-9.810999035499105,0.0,0.0,0.0,0.0,0.0,0.0,0.0,0.0,0.0
1710444411.8038528,293,1710444411,803732872,map,0.0004406795265692319,5.610984775583303e-06,-6.274038303269056e-07,0.9999999028848344,0.0,0.0,0.0,0.0,0.0,0.0,0.0,0.0,0.0,0.0022895634133438727,1.3421970365908156e-05,-4.955561555053916e-06,0.0,0.0,0.0,0.0,0.0,0.0,0.0,0.0,0.0,0.000871291804399022,-0.020738106665679077,-9.810501243606616,0.0,0.0,0.0,0.0,0.0,0.0,0.0,0.0,0.0
1710444411.820861,294,1710444411,820628405,map,0.0004542209551581284,5.6677299393089886e-06,-6.540557749687081e-07,0.9999998968253812,0.0,0.0,0.0,0.0,0.0,0.0,0.0,0.0,0.0,0.002708286011992046,1.13483165943578e-05,-5.320347980413745e-06,0.0,0.0,0.0,0.0,0.0,0.0,0.0,0.0,0.0,-0.0003498695318259375,-0.025657326350548636,-9.811765048280343,0.0,0.0,0.0,0.0,0.0,0.0,0.0,0.0,0.0
1710444411.8371134,295,1710444411,836995602,map,0.0004710741660699521,5.728915700580459e-06,-6.788925939302366e-07,0.9999998890279183,0.0,0.0,0.0,0.0,0.0,0.0,0.0,0.0,0.0,0.003370642563566805,1.2237024648271735e-05,-4.954025015052844e-06,0.0,0.0,0.0,0.0,0.0,0.0,0.0,0.0,0.0,0.00010935763597061106,-0.030682482609006936,-9.811295196063766,0.0,0.0,0.0,0.0,0.0,0.0,0.0,0.0,0.0
1710444411.8536794,296,1710444411,853561640,map,0.0004905984677267153,5.799084313190556e-06,-7.027997641518786e-07,0.9999998796395029,0.0,0.0,0.0,0.0,0.0,0.0,0.0,0.0,0.0,0.0039048608009977065,1.40340372432961e-05,-4.765949102658826e-06,0.0,0.0,0.0,0.0,0.0,0.0,0.0,0.0,0.0,-1.925922174634152e-05,-0.04108817834477211,-9.810979943387231,0.0,0.0,0.0,0.0,0.0,0.0,0.0,0.0,0.0
1710444411.86968,297,1710444411,869594574,map,0.0005118884695910904,5.875065374932885e-06,-7.261147276320003e-07,0.999999868967567,0.0,0.0,0.0,0.0,0.0,0.0,0.0,0.0,0.0,0.004258000924542954,1.5196828849900642e-05,-4.646079911765954e-06,0.0,0.0,0.0,0.0,0.0,0.0,0.0,0.0,0.0,-1.9179509513316402e-05,-0.048468673838917294,-9.810806251735317,0.0,0.0,0.0,0.0,0.0,0.0,0.0,0.0,0.0
1710444411.886922,298,1710444411,886745453,map,0.0005341135795253494,5.961581808515949e-06,-7.481381800963908e-07,0.9999998573432819,0.0,0.0,0.0,0.0,0.0,0.0,0.0,0.0,0.0,0.0044450226085365275,1.7304173478168024e-05,-4.387818750319535e-06,0.0,0.0,0.0,0.0,0.0,0.0,0.0,0.0,0.0,-1.2332356771780723e-05,-0.05762599720632345,-9.811657946189348,0.0,0.0,0.0,0.0,0.0,0.0,0.0,0.0,0.0
1710444411.9028707,299,1710444411,902777195,map,0.0005559250847311802,6.057695065140796e-06,-7.685721547252686e-07,0.999999845454995,0.0,0.0,0.0,0.0,0.0,0.0,0.0,0.0,0.0,0.004362301699513519,1.9223654748156702e-05,-4.0714762840373294e-06,0.0,0.0,0.0,0.0,0.0,0.0,0.0,0.0,0.0,-3.0014727054786723e-06,-0.06735076520514999,-9.810763410898918,0.0,0.0,0.0,0.0,0.0,0.0,0.0,0.0,0.0
1710444411.9203355,300,1710444411,920074224,map,0.000576414209539957,6.166304037836009e-06,-7.873864551275228e-07,0.9999998338539942,0.0,0.0,0.0,0.0,0.0,0.0,0.0,0.0,0.0,0.004097825625108063,2.17227860018467e-05,-3.7505586803147225e-06,0.0,0.0,0.0,0.0,0.0,0.0,0.0,0.0,0.0,-2.6667686791166012e-05,-0.07663986252515298,-9.810721035723786,0.0,0.0,0.0,0.0,0.0,0.0,0.0,0.0,0.0
1710444411.936457,301,1710444411,936297417,map,0.0005950815985977395,6.289596978588749e-06,-8.036072944630675e-07,0.9999998229188275,0.0,0.0,0.0,0.0,0.0,0.0,0.0,0.0,0.0,0.0037334784530956826,2.4659606844890435e-05,-3.2358211825543127e-06,0.0,0.0,0.0,0.0,0.0,0.0,0.0,0.0,0.0,-2.2269030894071538e-05,-0.08565622877239466,-9.810704737579504,0.0,0.0,0.0,0.0,0.0,0.0,0.0,0.0,0.0
1710444411.953304,302,1710444411,953180790,map,0.0006111562203378046,6.428368527592219e-06,-8.169366703842328e-07,0.9999998132230241,0.0,0.0,0.0,0.0,0.0,0.0,0.0,0.0,0.0,0.00321492492764098,2.7755271408860624e-05,-2.6626179269725617e-06,0.0,0.0,0.0,0.0,0.0,0.0,0.0,0.0,0.0,-4.1480225726916565e-05,-0.09420148679093614,-9.810623246858096,0.0,0.0,0.0,0.0,0.0,0.0,0.0,0.0,0.0
1710444411.969721,303,1710444411,969580889,map,0.0006243512305944744,6.527028574151757e-06,-8.089422536416152e-07,0.9999998050711233,0.0,0.0,0.0,0.0,0.0,0.0,0.0,0.0,0.0,0.002639002528366468,1.9735170332429903e-05,1.6035264497894693e-06,0.0,0.0,0.0,0.0,0.0,0.0,0.0,0.0,0.0,-1.2202265284826261e-05,-0.10128614731950823,-9.809322189283154,0.0,0.0,0.0,0.0,0.0,0.0,0.0,0.0,0.0
1710444411.9865818,304,1710444411,986381292,map,0.0006345510718009803,6.591601748968416e-06,-7.917055042206789e-07,0.9999997986504103,0.0,0.0,0.0,0.0,0.0,0.0,0.0,0.0,0.0,0.0020399686122726983,1.2918478616485241e-05,3.4524680698964443e-06,0.0,0.0,0.0,0.0,0.0,0.0,0.0,0.0,0.0,0.000324310056726728,-0.10556852292828758,-9.809637907620955,0.0,0.0,0.0,0.0,0.0,0.0,0.0,0.0,0.0
1710444412.003806,305,1710444412,3711462,map,0.0006419830231762974,6.66897197973089e-06,-7.672284961384193e-07,0.9999997939063459,0.0,0.0,0.0,0.0,0.0,0.0,0.0,0.0,0.0,0.001486390532965008,1.5478368838497288e-05,4.895263465380695e-06,0.0,0.0,0.0,0.0,0.0,0.0,0.0,0.0,0.0,0.0003105753053767014,-0.1050656451416687,-9.808911941708523,0.0,0.0,0.0,0.0,0.0,0.0,0.0,0.0,0.0
1710444412.0202026,306,1710444412,20045519,map,0.0006474890001164743,6.766151922480579e-06,-7.351050259365592e-07,0.9999997903558149,0.0,0.0,0.0,0.0,0.0,0.0,0.0,0.0,0.0,0.0011011955585857318,1.944099403861828e-05,6.41945139638483e-06,0.0,0.0,0.0,0.0,0.0,0.0,0.0,0.0,0.0,1.9650919957144066e-05,-0.10883648821265819,-9.8095918071557,0.0,0.0,0.0,0.0,0.0,0.0,0.0,0.0,0.0
1710444412.0376565,307,1710444412,37506104,map,0.0006521158088393709,6.846044192533713e-06,-6.871423078014434e-07,0.9999997873487931,0.0,0.0,0.0,0.0,0.0,0.0,0.0,0.0,0.0,0.0009253618625717966,1.598539039836944e-05,9.588382477592641e-06,0.0,0.0,0.0,0.0,0.0,0.0,0.0,0.0,0.0,5.315395071422752e-05,-0.11729672576102147,-9.808831847970911,0.0,0.0,0.0,0.0,0.0,0.0,0.0,0.0,0.0
1710444412.0547428,308,1710444412,54567099,map,0.0006566234082795576,6.917743734040144e-06,-6.323588343195874e-07,0.9999997843986991,0.0,0.0,0.0,0.0,0.0,0.0,0.0,0.0,0.0,0.0009015199954423366,1.434772317136976e-05,1.0953447851398016e-05,0.0,0.0,0.0,0.0,0.0,0.0,0.0,0.0,0.0,0.0003465349016346966,-0.12030857916852689,-9.809141512712262,0.0,0.0,0.0,0.0,0.0,0.0,0.0,0.0,0.0
1710444412.0704021,309,1710444412,70295334,map,0.0006617158780121115,7.008074271605123e-06,-5.66709456981932e-07,0.9999997810413073,0.0,0.0,0.0,0.0,0.0,0.0,0.0,0.0,0.0,0.0010184940643954098,1.8075440538979383e-05,1.3124963214650422e-05,0.0,0.0,0.0,0.0,0.0,0.0,0.0,0.0,0.0,0.0003108397516068224,-0.11780881400004772,-9.808769449361375,0.0,0.0,0.0,0.0,0.0,0.0,0.0,0.0,0.0
1710444412.0868287,310,1710444412,86630106,map,0.0006681718431824018,7.09203057617603e-06,-4.80148948891484e-07,0.9999997767479054,0.0,0.0,0.0,0.0,0.0,0.0,0.0,0.0,0.0,0.0012911931872569425,1.6803562431756968e-05,1.7309926590689213e-05,0.0,0.0,0.0,0.0,0.0,0.0,0.0,0.0,0.0,0.00010734169309824885,-0.1208081145622755,-9.808913804353583,0.0,0.0,0.0,0.0,0.0,0.0,0.0,0.0,0.0
1710444412.1041176,311,1710444412,103871346,map,0.0006759204440624393,7.166978819596646e-06,-3.868870794467623e-07,0.999999771539993,0.0,0.0,0.0,0.0,0.0,0.0,0.0,0.0,0.0,0.0015497203851210885,1.5003004349030937e-05,1.865322797458257e-05,0.0,0.0,0.0,0.0,0.0,0.0,0.0,0.0,0.0,0.0003192349060016352,-0.12270782243986712,-9.80975059764713,0.0,0.0,0.0,0.0,0.0,0.0,0.0,0.0,0.0
1710444412.1202812,312,1710444412,120133400,map,0.0006856285058571146,7.266206491072345e-06,-2.7875194193541864e-07,0.9999997649303106,0.0,0.0,0.0,0.0,0.0,0.0,0.0,0.0,0.0,0.0019416126440825706,1.9861118530717683e-05,2.1627330730241647e-05,0.0,0.0,0.0,0.0,0.0,0.0,0.0,0.0,0.0,0.00028336278820839813,-0.12094825131825794,-9.808840229873683,0.0,0.0,0.0,0.0,0.0,0.0,0.0,0.0,0.0
1710444412.1367002,313,1710444412,136573315,map,0.0006973892832644535,7.327750555928721e-06,-1.4526119096212868e-07,0.9999997567972058,0.0,0.0,0.0,0.0,0.0,0.0,0.0,0.0,0.0,0.002352155844787683,1.232809666981804e-05,2.670665045351337e-05,0.0,0.0,0.0,0.0,0.0,0.0,0.0,0.0,0.0,0.00013916239588059674,-0.12641554021508894,-9.810664225049432,0.0,0.0,0.0,0.0,0.0,0.0,0.0,0.0,0.0
1710444412.1533668,314,1710444412,153170586,map,0.0007109381580393695,7.433461969480007e-06,-6.709516857259731e-10,0.9999997472558076,0.0,0.0,0.0,0.0,0.0,0.0,0.0,0.0,0.0,0.002709775408819145,2.1163244187893874e-05,2.892286596314009e-05,0.0,0.0,0.0,0.0,0.0,0.0,0.0,0.0,0.0,0.0005310679430435882,-0.12666856253859896,-9.80942230645517,0.0,0.0,0.0,0.0,0.0,0.0,0.0,0.0,0.0
1710444412.1701248,315,1710444412,169904470,map,0.0007258542132914518,7.496107887045456e-06,1.6991771741280985e-07,0.9999997365396857,0.0,0.0,0.0,0.0,0.0,0.0,0.0,0.0,0.0,0.002983211564474198,1.2553962976890438e-05,3.41308060546112e-05,0.0,0.0,0.0,0.0,0.0,0.0,0.0,0.0,0.0,1.5711388776470296e-05,-0.13168881434711088,-9.811155497684208,0.0,0.0,0.0,0.0,0.0,0.0,0.0,0.0,0.0
1710444412.1870701,316,1710444412,186940193,map,0.0007421672511848926,7.610236197257871e-06,3.547907644267936e-07,0.999999724564827,0.0,0.0,0.0,0.0,0.0,0.0,0.0,0.0,0.0,0.003262608180152785,2.2852561076793286e-05,3.698211603399859e-05,0.0,0.0,0.0,0.0,0.0,0.0,0.0,0.0,0.0,0.0005374746650031039,-0.13374994797690554,-9.810708462869625,0.0,0.0,0.0,0.0,0.0,0.0,0.0,0.0,0.0
1710444412.2041886,317,1710444412,204083204,map,0.0007593855787790955,7.677725611500011e-06,5.711307659105388e-07,0.999999711637093,0.0,0.0,0.0,0.0,0.0,0.0,0.0,0.0,0.0,0.0034436661619935494,1.3529534398683717e-05,4.3283945768338e-05,0.0,0.0,0.0,0.0,0.0,0.0,0.0,0.0,0.0,5.263300212139402e-05,-0.14097208044211046,-9.810745250109576,0.0,0.0,0.0,0.0,0.0,0.0,0.0,0.0,0.0
1710444412.2198095,318,1710444412,219615936,map,0.0007766709166497256,7.772906863920083e-06,8.151366044176347e-07,0.9999996983605569,0.0,0.0,0.0,0.0,0.0,0.0,0.0,0.0,0.0,0.0034570682253455944,1.907219359740046e-05,4.881291204558381e-05,0.0,0.0,0.0,0.0,0.0,0.0,0.0,0.0,0.0,0.000596994155510017,-0.14376165244556566,-9.810862131087138,0.0,0.0,0.0,0.0,0.0,0.0,0.0,0.0,0.0
1710444412.2369215,319,1710444412,236696243,map,0.0007934384387767217,7.87079659003272e-06,1.0693649300763796e-06,0.9999996851961259,0.0,0.0,0.0,0.0,0.0,0.0,0.0,0.0,0.0,0.0033535050746456457,1.9615569302473603e-05,5.0856183900350964e-05,0.0,0.0,0.0,0.0,0.0,0.0,0.0,0.0,0.0,0.00016190818938139885,-0.149045410322517,-9.811108000235158,0.0,0.0,0.0,0.0,0.0,0.0,0.0,0.0,0.0
1710444412.2530432,320,1710444412,252945423,map,0.0008088723071418117,7.939276898359567e-06,1.361597055803904e-06,0.9999996728302989,0.0,0.0,0.0,0.0,0.0,0.0,0.0,0.0,0.0,0.003086774214326843,1.3740051832347707e-05,5.845962572174996e-05,0.0,0.0,0.0,0.0,0.0,0.0,0.0,0.0,0.0,0.0003244959773301362,-0.1530943611713156,-9.811150375410291,0.0,0.0,0.0,0.0,0.0,0.0,0.0,0.0,0.0
1710444412.2708519,321,1710444412,270688057,map,0.0008228458620950835,8.035918807195407e-06,1.6898455078355609e-06,0.9999996614285706,0.0,0.0,0.0,0.0,0.0,0.0,0.0,0.0,0.0,0.0027947114196539653,1.9378607943217767e-05,6.565595504263302e-05,0.0,0.0,0.0,0.0,0.0,0.0,0.0,0.0,0.0,0.0005261092147402199,-0.15606912038442375,-9.810647461243885,0.0,0.0,0.0,0.0,0.0,0.0,0.0,0.0,0.0
1710444412.287042,322,1710444412,286844254,map,0.0008354298842451024,8.136762587245158e-06,2.026144574128116e-06,0.9999996509932373,0.0,0.0,0.0,0.0,0.0,0.0,0.0,0.0,0.0,0.002516804782073594,2.0220703844173424e-05,6.726316861921361e-05,0.0,0.0,0.0,0.0,0.0,0.0,0.0,0.0,0.0,0.0002188038020091792,-0.16095671250622823,-9.811025112529956,0.0,0.0,0.0,0.0,0.0,0.0,0.0,0.0,0.0
1710444412.3034856,323,1710444412,303295612,map,0.0008462928231176511,8.203258399007233e-06,2.4108135205455487e-06,0.999999641857612,0.0,0.0,0.0,0.0,0.0,0.0,0.0,0.0,0.0,0.0021725879385541477,1.335987918495959e-05,7.694018832532969e-05,0.0,0.0,0.0,0.0,0.0,0.0,0.0,0.0,0.0,0.00031974140215590977,-0.16321160612153524,-9.810201357751835,0.0,0.0,0.0,0.0,0.0,0.0,0.0,0.0,0.0
1710444412.3205302,324,1710444412,320386648,map,0.0008556061440728765,8.290572631916323e-06,2.827532483906831e-06,0.9999996339306318,0.0,0.0,0.0,0.0,0.0,0.0,0.0,0.0,0.0,0.0018626642167864904,1.7529672261788152e-05,8.334410462349308e-05,0.0,0.0,0.0,0.0,0.0,0.0,0.0,0.0,0.0,0.0005739109608071649,-0.16398988390009644,-9.809634647992098,0.0,0.0,0.0,0.0,0.0,0.0,0.0,0.0,0.0
1710444412.3366692,325,1710444412,336459160,map,0.0008639767630868079,8.372025018640544e-06,3.280028470905302e-06,0.9999996267315822,0.0,0.0,0.0,0.0,0.0,0.0,0.0,0.0,0.0,0.001674123710237881,1.6363938881096484e-05,9.04989725811788e-05,0.0,0.0,0.0,0.0,0.0,0.0,0.0,0.0,0.0,0.0003073646790978155,-0.16418587204094093,-9.810101240579819,0.0,0.0,0.0,0.0,0.0,0.0,0.0,0.0,0.0
1710444412.3533516,326,1710444412,353231192,map,0.00087156150022643,8.453065990959864e-06,3.7706480766933145e-06,0.9999996201473675,0.0,0.0,0.0,0.0,0.0,0.0,0.0,0.0,0.0,0.0015169472231082368,1.6288744828978886e-05,9.81224617257496e-05,0.0,0.0,0.0,0.0,0.0,0.0,0.0,0.0,0.0,0.0004228527869071841,-0.16529925493833772,-9.81004675821179,0.0,0.0,0.0,0.0,0.0,0.0,0.0,0.0,0.0
1710444412.370395,327,1710444412,370273590,map,0.0008789040420284333,8.536580290187773e-06,4.3014435013754e-06,0.9999996137180801,0.0,0.0,0.0,0.0,0.0,0.0,0.0,0.0,0.0,0.0014685080799998224,1.679063077441525e-05,0.00010615678200560108,0.0,0.0,0.0,0.0,0.0,0.0,0.0,0.0,0.0,0.00043581086889863687,-0.16504147004604808,-9.808825794374462,0.0,0.0,0.0,0.0,0.0,0.0,0.0,0.0,0.0
1710444412.3868124,328,1710444412,386625290,map,0.0008867271457702848,8.62264298841597e-06,4.875068160315106e-06,0.9999996068083491,0.0,0.0,0.0,0.0,0.0,0.0,0.0,0.0,0.0,0.0015646204433522291,1.7307544362542238e-05,0.00011472298636094063,0.0,0.0,0.0,0.0,0.0,0.0,0.0,0.0,0.0,0.0004523327133391616,-0.1652821359751267,-9.810033719696365,0.0,0.0,0.0,0.0,0.0,0.0,0.0,0.0,0.0
1710444412.4029512,329,1710444412,402846813,map,0.0008951575245468873,8.709501097693654e-06,5.493024636421079e-06,0.9999995992934085,0.0,0.0,0.0,0.0,0.0,0.0,0.0,0.0,0.0,0.0016860754333363724,1.747404192008483e-05,0.00012359024118555897,0.0,0.0,0.0,0.0,0.0,0.0,0.0,0.0,0.0,0.00039817948290235533,-0.16545045797057836,-9.809191804128902,0.0,0.0,0.0,0.0,0.0,0.0,0.0,0.0,0.0
1710444412.4196553,330,1710444412,419433832,map,0.0009045563711150526,8.799162131267054e-06,6.157848069232572e-06,0.9999995908311299,0.0,0.0,0.0,0.0,0.0,0.0,0.0,0.0,0.0,0.001879769003890769,1.804216270637674e-05,0.00013296479271269348,0.0,0.0,0.0,0.0,0.0,0.0,0.0,0.0,0.0,0.0004831312364958233,-0.1655503886961892,-9.809595066784556,0.0,0.0,0.0,0.0,0.0,0.0,0.0,0.0,0.0
1710444412.436635,331,1710444412,436503172,map,0.0009161643660920429,8.898293322499067e-06,6.8746335097199404e-06,0.999999580258119,0.0,0.0,0.0,0.0,0.0,0.0,0.0,0.0,0.0,0.002321598804671053,1.9943291369648276e-05,0.00014335930514552259,0.0,0.0,0.0,0.0,0.0,0.0,0.0,0.0,0.0,0.0004781758619540085,-0.16590617027369822,-9.80886770388833,0.0,0.0,0.0,0.0,0.0,0.0,0.0,0.0,0.0
1710444412.4529555,332,1710444412,452836514,map,0.0009309687124560124,9.0031775742128e-06,7.6467434743161e-06,0.9999995665787694,0.0,0.0,0.0,0.0,0.0,0.0,0.0,0.0,0.0,0.0029608692904321563,2.1100273137817815e-05,0.00015442876299162482,0.0,0.0,0.0,0.0,0.0,0.0,0.0,0.0,0.0,0.0004475497661948439,-0.16832982620066392,-9.809613693235164,0.0,0.0,0.0,0.0,0.0,0.0,0.0,0.0,0.0
1710444412.4698775,333,1710444412,469685793,map,0.0009511597686697986,9.121670923184959e-06,8.479972372852423e-06,0.9999995475698875,0.0,0.0,0.0,0.0,0.0,0.0,0.0,0.0,0.0,0.004038211693143111,2.382632163006787e-05,0.00016665954951878908,0.0,0.0,0.0,0.0,0.0,0.0,0.0,0.0,0.0,0.0005881020972874067,-0.171723836530777,-9.81011847004663,0.0,0.0,0.0,0.0,0.0,0.0,0.0,0.0,0.0
1710444412.4864118,334,1710444412,486212254,map,0.00097885355125534,9.282283805302246e-06,9.408038727567826e-06,0.9999995208354119,0.0,0.0,0.0,0.0,0.0,0.0,0.0,0.0,0.0,0.005538757647025373,3.225733091067385e-05,0.00018563230806300604,0.0,0.0,0.0,0.0,0.0,0.0,0.0,0.0,0.0,0.0005498044353994493,-0.18035131559493756,-9.809851646141677,0.0,0.0,0.0,0.0,0.0,0.0,0.0,0.0,0.0
1710444412.5031476,335,1710444412,502980709,map,0.0010134838752229917,9.43474536705811e-06,1.0436209105009093e-05,0.999999486326121,0.0,0.0,0.0,0.0,0.0,0.0,0.0,0.0,0.0,0.0069260665787171,3.063560911430515e-05,0.00020566742328149303,0.0,0.0,0.0,0.0,0.0,0.0,0.0,0.0,0.0,0.0005354874191741192,-0.1920318245277758,-9.811049326915745,0.0,0.0,0.0,0.0,0.0,0.0,0.0,0.0,0.0
1710444412.5196505,336,1710444412,519405365,map,0.0010550022541111017,9.615505784265973e-06,1.1543903838109809e-05,0.9999994433721072,0.0,0.0,0.0,0.0,0.0,0.0,0.0,0.0,0.0,0.008303678468183008,3.6299212816712745e-05,0.00022157911909580214,0.0,0.0,0.0,0.0,0.0,0.0,0.0,0.0,0.0,0.0008913085597007937,-0.20718319517988204,-9.811046998609418,0.0,0.0,0.0,0.0,0.0,0.0,0.0,0.0,0.0
1710444412.5368936,337,1710444412,536777735,map,0.001102637552075116,9.746694113612397e-06,1.2780670357406657e-05,0.9999993919658577,0.0,0.0,0.0,0.0,0.0,0.0,0.0,0.0,0.0,0.009527063031926361,2.6400514724345074e-05,0.00024741595424530367,0.0,0.0,0.0,0.0,0.0,0.0,0.0,0.0,0.0,0.000768893165032135,-0.2256665349839667,-9.811317547804494,0.0,0.0,0.0,0.0,0.0,0.0,0.0,0.0,0.0
1710444412.5536125,338,1710444412,553505659,map,0.001153595802914494,9.914320382394143e-06,1.4127165533705128e-05,0.9999993344592051,0.0,0.0,0.0,0.0,0.0,0.0,0.0,0.0,0.0,0.010191654415528575,3.370575472675878e-05,0.0002693596699671604,0.0,0.0,0.0,0.0,0.0,0.0,0.0,0.0,0.0,0.0013796294153510039,-0.23806258247297563,-9.810926392341734,0.0,0.0,0.0,0.0,0.0,0.0,0.0,0.0,0.0
1710444412.5703979,339,1710444412,570262671,map,0.0012061559953058098,1.0077888131835719e-05,1.5609049873108135e-05,0.9999992724209897,0.0,0.0,0.0,0.0,0.0,0.0,0.0,0.0,0.0,0.010512043275305753,3.2922626012658135e-05,0.00029644159740726617,0.0,0.0,0.0,0.0,0.0,0.0,0.0,0.0,0.0,0.0009708606577171604,-0.2517606406873277,-9.811736177281901,0.0,0.0,0.0,0.0,0.0,0.0,0.0,0.0,0.0
1710444412.5866544,340,1710444412,586473465,map,0.0012591667996034559,1.0256168450845259e-05,1.7239509167197468e-05,0.9999992070479763,0.0,0.0,0.0,0.0,0.0,0.0,0.0,0.0,0.0,0.01060216613230315,3.590128734901565e-05,0.00032615376355973126,0.0,0.0,0.0,0.0,0.0,0.0,0.0,0.0,0.0,0.001233433080151545,-0.27043624766223495,-9.813099167805111,0.0,0.0,0.0,0.0,0.0,0.0,0.0,0.0,0.0
1710444412.603061,341,1710444412,602965355,map,0.0013098232919838235,1.043080320692094e-05,1.9030218712201655e-05,0.9999991419456283,0.0,0.0,0.0,0.0,0.0,0.0,0.0,0.0,0.0,0.010131303707610315,3.5221504058211356e-05,0.000358199995185416,0.0,0.0,0.0,0.0,0.0,0.0,0.0,0.0,0.0,0.0013149970869340832,-0.2896678496403058,-9.813558775473854,0.0,0.0,0.0,0.0,0.0,0.0,0.0,0.0,0.0
1710444412.6198456,342,1710444412,619703531,map,0.0013567992001738902,1.060956436442107e-05,2.0989937875072196e-05,0.9999990792709712,0.0,0.0,0.0,0.0,0.0,0.0,0.0,0.0,0.0,0.00939518651977402,3.610533065819469e-05,0.0003919932093438676,0.0,0.0,0.0,0.0,0.0,0.0,0.0,0.0,0.0,0.0014453214045211417,-0.30460757451889914,-9.812906849702587,0.0,0.0,0.0,0.0,0.0,0.0,0.0,0.0,0.0
1710444412.6362803,343,1710444412,636156321,map,0.00139987100828703,1.078872209567624e-05,2.3129302319118326e-05,0.9999990198544192,0.0,0.0,0.0,0.0,0.0,0.0,0.0,0.0,0.0,0.00861436595208262,3.624979308567097e-05,0.0004279139617473297,0.0,0.0,0.0,0.0,0.0,0.0,0.0,0.0,0.0,0.0014978991770464866,-0.32572176950407655,-9.813553653199937,0.0,0.0,0.0,0.0,0.0,0.0,0.0,0.0,0.0
1710444412.652908,344,1710444412,652780056,map,0.0014375560549377807,1.0956526668832404e-05,2.546399909765417e-05,0.9999989663315298,0.0,0.0,0.0,0.0,0.0,0.0,0.0,0.0,0.0,0.007537012588657667,3.4057924225550674e-05,0.0004669721962327341,0.0,0.0,0.0,0.0,0.0,0.0,0.0,0.0,0.0,0.0016390771196718892,-0.34189503471213695,-9.812030940862766,0.0,0.0,0.0,0.0,0.0,0.0,0.0,0.0,0.0
1710444412.669877,345,1710444412,669773579,map,0.0014701076607927194,1.1123543689753346e-05,2.800384898639321e-05,0.9999989189371741,0.0,0.0,0.0,0.0,0.0,0.0,0.0,0.0,0.0,0.006510323267731956,3.3984465991983145e-05,0.0005079918993072081,0.0,0.0,0.0,0.0,0.0,0.0,0.0,0.0,0.0,0.0017602445739821517,-0.3509613613199634,-9.811356197689506,0.0,0.0,0.0,0.0,0.0,0.0,0.0,0.0,0.0
1710444412.6865523,346,1710444412,686342955,map,0.001500807800608511,1.1301755705043064e-05,3.0774184970672406e-05,0.999998873249948,0.0,0.0,0.0,0.0,0.0,0.0,0.0,0.0,0.0,0.0061400294937809675,3.630207058718648e-05,0.0005540816402404537,0.0,0.0,0.0,0.0,0.0,0.0,0.0,0.0,0.0,0.001859379477555891,-0.36031540656302985,-9.810714982127339,0.0,0.0,0.0,0.0,0.0,0.0,0.0,0.0,0.0
1710444412.703332,347,1710444412,703130722,map,0.0015310944335243453,1.1474130584098204e-05,3.380304309153599e-05,0.9999988272370794,0.0,0.0,0.0,0.0,0.0,0.0,0.0,0.0,0.0,0.00605732767831121,3.5216125726220094e-05,0.0006057868766345682,0.0,0.0,0.0,0.0,0.0,0.0,0.0,0.0,0.0,0.0018478887230875074,-0.37185537310526795,-9.809333830814785,0.0,0.0,0.0,0.0,0.0,0.0,0.0,0.0,0.0
1710444412.7202463,348,1710444412,720031500,map,0.001564223362374787,1.1670168854300415e-05,3.7116112365405685e-05,0.9999987758449878,0.0,0.0,0.0,0.0,0.0,0.0,0.0,0.0,0.0,0.0066257873279175795,4.00202308441174e-05,0.0006626280941742519,0.0,0.0,0.0,0.0,0.0,0.0,0.0,0.0,0.0,0.0022551575748153943,-0.3783319136728043,-9.809065144264771,0.0,0.0,0.0,0.0,0.0,0.0,0.0,0.0,0.0
1710444412.7373602,349,1710444412,737233400,map,0.0016039499492489118,1.1889003047906189e-05,4.075566516738931e-05,0.9999987127702654,0.0,0.0,0.0,0.0,0.0,0.0,0.0,0.0,0.0,0.007945320350401191,4.463956609920222e-05,0.0007279326268205736,0.0,0.0,0.0,0.0,0.0,0.0,0.0,0.0,0.0,0.0022993771482718584,-0.389371643600912,-9.8082781767266,0.0,0.0,0.0,0.0,0.0,0.0,0.0,0.0,0.0
1710444412.753303,350,1710444412,753189087,map,0.0016503037139185583,1.2117540701898493e-05,4.475662656694583e-05,0.999998637172902,0.0,0.0,0.0,0.0,0.0,0.0,0.0,0.0,0.0,0.009270757417310316,4.665037796662296e-05,0.0008002266119425417,0.0,0.0,0.0,0.0,0.0,0.0,0.0,0.0,0.0,0.002674129221164799,-0.4026133274000327,-9.807749651190608,0.0,0.0,0.0,0.0,0.0,0.0,0.0,0.0,0.0
1710444412.7698662,351,1710444412,769780636,map,0.0017043838050569647,1.2385738325058046e-05,4.914535855788332e-05,0.9999985462525295,0.0,0.0,0.0,0.0,0.0,0.0,0.0,0.0,0.0,0.010816025026675582,5.4651602364530125e-05,0.0008777856035841172,0.0,0.0,0.0,0.0,0.0,0.0,0.0,0.0,0.0,0.002988762204986308,-0.41292438839758394,-9.80800017695128,0.0,0.0,0.0,0.0,0.0,0.0,0.0,0.0,0.0
1710444412.786524,352,1710444412,786251068,map,0.0017674194650963437,1.2687166846978273e-05,5.39627528811256e-05,0.9999984365765237,0.0,0.0,0.0,0.0,0.0,0.0,0.0,0.0,0.0,0.012607141808497984,6.136918097595814e-05,0.0009635280741349005,0.0,0.0,0.0,0.0,0.0,0.0,0.0,0.0,0.0,0.003138302553093388,-0.4352635781004164,-9.807034395487277,0.0,0.0,0.0,0.0,0.0,0.0,0.0,0.0,0.0
1710444412.80309,353,1710444412,802984238,map,0.0018368215098724299,1.3010114861057825e-05,5.9240747384984076e-05,0.9999983112025799,0.0,0.0,0.0,0.0,0.0,0.0,0.0,0.0,0.0,0.013880421328936177,6.577974583792139e-05,0.0010556559869656721,0.0,0.0,0.0,0.0,0.0,0.0,0.0,0.0,0.0,0.0034508425481209986,-0.45783032336682405,-9.806946385508155,0.0,0.0,0.0,0.0,0.0,0.0,0.0,0.0,0.0
1710444412.8203008,354,1710444412,820148468,map,0.0019115695360060268,1.3368440839176832e-05,6.500761590507046e-05,0.9999981707469288,0.0,0.0,0.0,0.0,0.0,0.0,0.0,0.0,0.0,0.01494962041148987,7.298457287662985e-05,0.0011534308280210296,0.0,0.0,0.0,0.0,0.0,0.0,0.0,0.0,0.0,0.0038084821947957843,-0.47578354420027624,-9.807184338414668,0.0,0.0,0.0,0.0,0.0,0.0,0.0,0.0,0.0
1710444412.8364851,355,1710444412,836273670,map,0.0019931310863211737,1.377817304552882e-05,7.131827408053619e-05,0.9999980110741913,0.0,0.0,0.0,0.0,0.0,0.0,0.0,0.0,0.0,0.01631232921527346,8.340189253075016e-05,0.0012621860279661645,0.0,0.0,0.0,0.0,0.0,0.0,0.0,0.0,0.0,0.003965286463578086,-0.5005369219906787,-9.807198308252623,0.0,0.0,0.0,0.0,0.0,0.0,0.0,0.0,0.0
1710444412.8531384,356,1710444412,853018045,map,0.0020789280151936192,1.4200997350783139e-05,7.824322385152235e-05,0.999997835864977,0.0,0.0,0.0,0.0,0.0,0.0,0.0,0.0,0.0,0.017159407861484025,8.622069794864809e-05,0.0013850501824402713,0.0,0.0,0.0,0.0,0.0,0.0,0.0,0.0,0.0,0.004299263702455621,-0.531291014571123,-9.808468632184061,0.0,0.0,0.0,0.0,0.0,0.0,0.0,0.0,0.0
1710444412.8704004,357,1710444412,870219946,map,0.002166885953463899,1.4667512484527578e-05,8.581918799313218e-05,0.9999976485098332,0.0,0.0,0.0,0.0,0.0,0.0,0.0,0.0,0.0,0.017591612567995435,9.521018918552886e-05,0.0015152399602799454,0.0,0.0,0.0,0.0,0.0,0.0,0.0,0.0,0.0,0.0050735562388477765,-0.5606865731521833,-9.808436967218029,0.0,0.0,0.0,0.0,0.0,0.0,0.0,0.0,0.0
1710444412.8866675,358,1710444412,886482716,map,0.0022549853089091684,1.5160518402173004e-05,9.409149938833863e-05,0.9999974529758588,0.0,0.0,0.0,0.0,0.0,0.0,0.0,0.0,0.0,0.017619897780456247,0.0001008201941043322,0.0016544976510947098,0.0,0.0,0.0,0.0,0.0,0.0,0.0,0.0,0.0,0.005209475582833281,-0.57337081130416,-9.808924048901417,0.0,0.0,0.0,0.0,0.0,0.0,0.0,0.0,0.0
1710444412.9036715,359,1710444412,903557539,map,0.002338130033960868,1.6788806583023658e-05,0.00010285609490310238,0.9999972611396014,0.0,0.0,0.0,0.0,0.0,0.0,0.0,0.0,0.0,0.016628990384251103,0.00032819125792080204,0.0017524087171349651,0.0,0.0,0.0,0.0,0.0,0.0,0.0,0.0,0.0,0.005824836400328189,-0.570830494497339,-9.809470269565486,0.0,0.0,0.0,0.0,0.0,0.0,0.0,0.0,0.0
1710444412.9204137,360,1710444412,920221806,map,0.002413395796863601,1.718767274374845e-05,0.00011245104563947787,0.9999970812857776,0.0,0.0,0.0,0.0,0.0,0.0,0.0,0.0,0.0,0.015053170663874987,8.285659663737944e-05,0.0019190485647113545,0.0,0.0,0.0,0.0,0.0,0.0,0.0,0.0,0.0,0.0018030381450790955,-0.5678501059670417,-9.808440692508151,0.0,0.0,0.0,0.0,0.0,0.0,0.0,0.0,0.0
1710444412.9368958,361,1710444412,936782837,map,0.002480380275751435,1.7944407143142872e-05,0.00012288864136733943,0.9999969161402789,0.0,0.0,0.0,0.0,0.0,0.0,0.0,0.0,0.0,0.013396915920513936,0.00015501834287835156,0.0020873713892768835,0.0,0.0,0.0,0.0,0.0,0.0,0.0,0.0,0.0,0.013297544961050345,-0.5583807349822787,-9.80800716187026,0.0,0.0,0.0,0.0,0.0,0.0,0.0,0.0,0.0
1710444412.9532824,362,1710444412,953176737,map,0.002535578001623299,1.859300310933687e-05,0.00013422208580000228,0.9999967762362685,0.0,0.0,0.0,0.0,0.0,0.0,0.0,0.0,0.0,0.011039554286099897,0.0001341100199575336,0.0022665542809974164,0.0,0.0,0.0,0.0,0.0,0.0,0.0,0.0,0.0,0.004496925764666502,-0.5244071695536695,-9.807810652816348,0.0,0.0,0.0,0.0,0.0,0.0,0.0,0.0,0.0
1710444412.970805,363,1710444412,970517397,map,0.002577677688617447,1.9146242820450805e-05,0.00014643201207563565,0.9999966668788556,0.0,0.0,0.0,0.0,0.0,0.0,0.0,0.0,0.0,0.008419933748480683,0.00011581249595771394,0.0024418514403705114,0.0,0.0,0.0,0.0,0.0,0.0,0.0,0.0,0.0,0.007508899314284683,-0.47872123013736423,-9.806941263234238,0.0,0.0,0.0,0.0,0.0,0.0,0.0,0.0,0.0
1710444412.987123,364,1710444412,986997128,map,0.0026058892751110617,1.9764202403479745e-05,0.00015944491588840777,0.9999965917580824,0.0,0.0,0.0,0.0,0.0,0.0,0.0,0.0,0.0,0.005642303803373427,0.00012954760739820542,0.002602360083280578,0.0,0.0,0.0,0.0,0.0,0.0,0.0,0.0,0.0,0.007639484898423271,-0.4062414180084017,-9.805586654613801,0.0,0.0,0.0,0.0,0.0,0.0,0.0,0.0,0.0
1710444413.0043733,365,1710444413,4258156,map,0.0025865438102814233,2.005764339058498e-05,0.00017324235744046825,0.9999966396823012,0.0,0.0,0.0,0.0,0.0,0.0,0.0,0.0,0.0,-0.0038691508549787345,6.644225641671615e-05,0.002759249258652608,0.0,0.0,0.0,0.0,0.0,0.0,0.0,0.0,0.0,0.007672758447868421,-0.30177232132722775,-9.804672095888968,0.0,0.0,0.0,0.0,0.0,0.0,0.0,0.0,0.0
1710444413.0206125,366,1710444413,20505190,map,0.0024519227838066906,1.9773404663665378e-05,0.00018787417803656301,0.9999969761889124,0.0,0.0,0.0,0.0,0.0,0.0,0.0,0.0,0.0,-0.026924356869021636,-4.5009218626004726e-05,0.002925943596738275,0.0,0.0,0.0,0.0,0.0,0.0,0.0,0.0,0.0,0.009177359307360883,-0.2707650290718149,-9.797560517046985,0.0,0.0,0.0,0.0,0.0,0.0,0.0,0.0,0.0
1710444413.0370793,367,1710444413,36956549,map,0.00218492009163004,1.8338185987953533e-05,0.00020332977151169004,0.9999975922195554,0.0,0.0,0.0,0.0,0.0,0.0,0.0,0.0,0.0,-0.05340079056868326,-0.0002702587654001228,0.003090662049571097,0.0,0.0,0.0,0.0,0.0,0.0,0.0,0.0,0.0,0.0033842154421224522,-0.3302848624582142,-9.781356436340904,0.0,0.0,0.0,0.0,0.0,0.0,0.0,0.0,0.0
1710444413.0536542,368,1710444413,53522587,map,0.0017880127659486579,1.5453898217449477e-05,0.00021973637481552305,0.999998377242409,0.0,0.0,0.0,0.0,0.0,0.0,0.0,0.0,0.0,-0.07938178750464407,-0.0005548512543297837,0.003280865545123806,0.0,0.0,0.0,0.0,0.0,0.0,0.0,0.0,0.0,0.009162461699588311,-0.19482426234890018,-9.775620886537558,0.0,0.0,0.0,0.0,0.0,0.0,0.0,0.0,0.0
1710444413.0704312,369,1710444413,70288181,map,0.001310534862798196,1.147632141772262e-05,0.00023689378703993963,0.9999991131236072,0.0,0.0,0.0,0.0,0.0,0.0,0.0,0.0,0.0,-0.09549590708369814,-0.0007700352878597844,0.003431023864311745,0.0,0.0,0.0,0.0,0.0,0.0,0.0,0.0,0.0,0.016447818908117466,-0.0179801127715169,-9.772136808951407,0.0,0.0,0.0,0.0,0.0,0.0,0.0,0.0,0.0
1710444413.0875804,370,1710444413,87459326,map,0.0008148067129597591,7.1487451486012305e-06,0.00025482264644672464,0.999999635552101,0.0,0.0,0.0,0.0,0.0,0.0,0.0,0.0,0.0,-0.09914591419184322,-0.0008391068772522052,0.0035853248806967473,0.0,0.0,0.0,0.0,0.0,0.0,0.0,0.0,0.0,0.010568792115969155,0.16572211038267462,-9.779162240459328,0.0,0.0,0.0,0.0,0.0,0.0,0.0,0.0,0.0
1710444413.1045384,371,1710444413,104291439,map,0.00035975874083494976,2.6782636725259183e-06,0.0002736716461443964,0.9999998978351474,0.0,0.0,0.0,0.0,0.0,0.0,0.0,0.0,0.0,-0.09100984555327116,-0.0008695487639056416,0.0037694678128239152,0.0,0.0,0.0,0.0,0.0,0.0,0.0,0.0,0.0,0.006218585770275765,0.38656295129124957,-9.788497351842592,0.0,0.0,0.0,0.0,0.0,0.0,0.0,0.0,0.0
1710444413.1198003,372,1710444413,119640827,map,-1.2703240126529172e-05,-1.2855998859149543e-06,0.0002935589339397284,0.9999999568300627,0.0,0.0,0.0,0.0,0.0,0.0,0.0,0.0,0.0,-0.07449260681545689,-0.0007724367135998187,0.0039772521923529145,0.0,0.0,0.0,0.0,0.0,0.0,0.0,0.0,0.0,0.007401134741697332,0.5769375728687121,-9.799884166760284,0.0,0.0,0.0,0.0,0.0,0.0,0.0,0.0,0.0
1710444413.1373017,373,1710444413,137177467,map,-0.0002509281284720581,-4.175726143478015e-06,0.00031462012142740957,0.9999999190159052,0.0,0.0,0.0,0.0,0.0,0.0,0.0,0.0,0.0,-0.04764512853762204,-0.0005650955969176362,0.004212158945006061,0.0,0.0,0.0,0.0,0.0,0.0,0.0,0.0,0.0,0.005268014069664089,0.6832960319257363,-9.809629525718181,0.0,0.0,0.0,0.0,0.0,0.0,0.0,0.0,0.0
1710444413.1534264,374,1710444413,153227568,map,-0.00033323096464469177,-5.551117652277099e-06,0.0003370036944372912,0.9999998876774033,0.0,0.0,0.0,0.0,0.0,0.0,0.0,0.0,0.0,-0.016460629273904077,-0.00027139126056518873,0.004476693600501259,0.0,0.0,0.0,0.0,0.0,0.0,0.0,0.0,0.0,0.004083673308500006,0.8036010167713725,-9.824048261133525,0.0,0.0,0.0,0.0,0.0,0.0,0.0,0.0,0.0
1710444413.171045,375,1710444413,170953512,map,-0.00023829939015206005,-5.553311458399452e-06,0.00036069433722363633,0.999999906541074,0.0,0.0,0.0,0.0,0.0,0.0,0.0,0.0,0.0,0.018986340399738812,-7.966301193810225e-06,0.0047380219902154784,0.0,0.0,0.0,0.0,0.0,0.0,0.0,0.0,0.0,0.0036612973952218496,0.809724375097134,-9.836123323401166,0.0,0.0,0.0,0.0,0.0,0.0,0.0,0.0,0.0
1710444413.1871252,376,1710444413,187000513,map,3.84449952807226e-05,-3.93358089474321e-06,0.0003858733338208204,0.999999924804137,0.0,0.0,0.0,0.0,0.0,0.0,0.0,0.0,0.0,0.05534901066077705,0.00030417560513704367,0.005035483372200738,0.0,0.0,0.0,0.0,0.0,0.0,0.0,0.0,0.0,0.007345376892676574,0.7957979600544125,-9.84947243489037,0.0,0.0,0.0,0.0,0.0,0.0,0.0,0.0,0.0
1710444413.2043703,377,1710444413,204259396,map,0.00048333408209881893,-1.447915617991809e-06,0.0004127141005827263,0.9999997980265496,0.0,0.0,0.0,0.0,0.0,0.0,0.0,0.0,0.0,0.0889780150713925,0.0004653931622143141,0.0053675871020783805,0.0,0.0,0.0,0.0,0.0,0.0,0.0,0.0,0.0,0.006098113937270771,0.7029309593145932,-9.862078816661592,0.0,0.0,0.0,0.0,0.0,0.0,0.0,0.0,0.0
1710444413.2215395,378,1710444413,221422434,map,0.0010598562622853845,1.5731420665286328e-06,0.00044114026095375456,0.9999993410485324,0.0,0.0,0.0,0.0,0.0,0.0,0.0,0.0,0.0,0.115304704964518,0.0005626487159373331,0.0056844862243596,0.0,0.0,0.0,0.0,0.0,0.0,0.0,0.0,0.0,0.010672001655089285,0.511508920032573,-9.870413687647229,0.0,0.0,0.0,0.0,0.0,0.0,0.0,0.0,0.0
1710444413.2367985,379,1710444413,236676693,map,0.00173579910308875,1.030317851265643e-05,0.000471973641164345,0.9999983820667914,0.0,0.0,0.0,0.0,0.0,0.0,0.0,0.0,0.0,0.13518940094790688,0.0016970720177072692,0.006163973020444405,0.0,0.0,0.0,0.0,0.0,0.0,0.0,0.0,0.0,0.020239553014570977,0.19553890323384288,-9.873942003053573,0.0,0.0,0.0,0.0,0.0,0.0,0.0,0.0,0.0
1710444413.2542758,380,1710444413,254138708,map,0.0024432876354736456,1.8111254510676924e-05,0.0005048639376318626,0.9999968875601151,0.0,0.0,0.0,0.0,0.0,0.0,0.0,0.0,0.0,0.1414986278495554,0.0015109035155662213,0.006575869643415838,0.0,0.0,0.0,0.0,0.0,0.0,0.0,0.0,0.0,-0.006000635436633106,-0.06724455714740565,-9.875859130482361,0.0,0.0,0.0,0.0,0.0,0.0,0.0,0.0,0.0
1710444413.2702913,381,1710444413,270187378,map,0.0031350517862612417,2.7337968271297515e-05,0.0005385144388851074,0.999994940339766,0.0,0.0,0.0,0.0,0.0,0.0,0.0,0.0,0.0,0.13835411151298704,0.0017965922710818287,0.006727031741674158,0.0,0.0,0.0,0.0,0.0,0.0,0.0,0.0,0.0,0.02695828979279238,-0.43188423428116746,-9.867254175962914,0.0,0.0,0.0,0.0,0.0,0.0,0.0,0.0,0.0
1710444413.286555,382,1710444413,286442757,map,0.003756795263434088,3.492470013056226e-05,0.0005747233218279762,0.9999927774552761,0.0,0.0,0.0,0.0,0.0,0.0,0.0,0.0,0.0,0.12434999617087256,0.0014775918654865187,0.007239698086247492,0.0,0.0,0.0,0.0,0.0,0.0,0.0,0.0,0.0,0.012712083382552152,-0.739092768891732,-9.858003814929916,0.0,0.0,0.0,0.0,0.0,0.0,0.0,0.0,0.0
1710444413.3038836,383,1710444413,303741217,map,0.0042513574692812335,4.661224705385457e-05,0.0006153039721085087,0.9999907725514215,0.0,0.0,0.0,0.0,0.0,0.0,0.0,0.0,0.0,0.09891420338285657,0.002315161030427472,0.008109830816259876,0.0,0.0,0.0,0.0,0.0,0.0,0.0,0.0,0.0,0.04197320964339369,-0.9141629218527265,-9.841810910094198,0.0,0.0,0.0,0.0,0.0,0.0,0.0,0.0,0.0
1710444413.3206644,384,1710444413,320520163,map,0.00461566837885617,4.970271586892553e-05,0.0006588077184517105,0.9999891294946394,0.0,0.0,0.0,0.0,0.0,0.0,0.0,0.0,0.0,0.07286285637386096,0.0006134310739778006,0.008701416809822303,0.0,0.0,0.0,0.0,0.0,0.0,0.0,0.0,0.0,0.013657743954116067,-1.1838980428111505,-9.82121610931864,0.0,0.0,0.0,0.0,0.0,0.0,0.0,0.0,0.0
1710444413.3372579,385,1710444413,337135077,map,0.004852209326034785,4.777023871534933e-05,0.0007060698242031201,0.9999879775517624,0.0,0.0,0.0,0.0,0.0,0.0,0.0,0.0,0.0,0.047308032205084276,-0.00037178066031103853,0.009456693668848094,0.0,0.0,0.0,0.0,0.0,0.0,0.0,0.0,0.0,0.09704934375958607,-1.33833939444827,-9.805636946030441,0.0,0.0,0.0,0.0,0.0,0.0,0.0,0.0,0.0
1710444413.3536656,386,1710444413,353486538,map,0.0049389121076454465,5.345087036957011e-05,0.0007553803275462046,0.9999875167674636,0.0,0.0,0.0,0.0,0.0,0.0,0.0,0.0,0.0,0.017341068331079353,0.001172581090499706,0.009857261183105691,0.0,0.0,0.0,0.0,0.0,0.0,0.0,0.0,0.0,0.06834524986583135,-1.4182085196220926,-9.789576754655304,0.0,0.0,0.0,0.0,0.0,0.0,0.0,0.0,0.0
1710444413.370572,387,1710444413,370460749,map,0.004883971477117092,5.578360757860487e-05,0.0008069934072590124,0.9999877461611419,0.0,0.0,0.0,0.0,0.0,0.0,0.0,0.0,0.0,-0.010988441983696591,0.0005252548931136354,0.01031958974419354,0.0,0.0,0.0,0.0,0.0,0.0,0.0,0.0,0.0,-0.01600040165103112,-1.5347225197280305,-9.765868542660684,0.0,0.0,0.0,0.0,0.0,0.0,0.0,0.0,0.0
1710444413.386897,388,1710444413,386707544,map,0.004691250935043509,5.6789427765570376e-05,0.0008623531896000676,0.9999886225785781,0.0,0.0,0.0,0.0,0.0,0.0,0.0,0.0,0.0,-0.0385449635026809,0.0002841985668638398,0.011068601716120558,0.0,0.0,0.0,0.0,0.0,0.0,0.0,0.0,0.0,0.06562211553769033,-1.5244812569885569,-9.746164551885434,0.0,0.0,0.0,0.0,0.0,0.0,0.0,0.0,0.0
1710444413.4043326,389,1710444413,404247522,map,0.004389588105846143,5.5923021525309035e-05,0.0009218776331044351,0.9999899392146434,0.0,0.0,0.0,0.0,0.0,0.0,0.0,0.0,0.0,-0.06033393716126025,-6.900787331628947e-05,0.011901892557808907,0.0,0.0,0.0,0.0,0.0,0.0,0.0,0.0,0.0,0.05676357162481439,-1.5392849955900423,-9.726980239082135,0.0,0.0,0.0,0.0,0.0,0.0,0.0,0.0,0.0
1710444413.4203823,390,1710444413,420253515,map,0.004031383101569086,6.255899847465579e-05,0.0009848075290169547,0.9999913870583041,0.0,0.0,0.0,0.0,0.0,0.0,0.0,0.0,0.0,-0.07164112398563624,0.001443952549003098,0.012576271435761217,0.0,0.0,0.0,0.0,0.0,0.0,0.0,0.0,0.0,0.05743789301992681,-1.4775267253186433,-9.715499360588876,0.0,0.0,0.0,0.0,0.0,0.0,0.0,0.0,0.0
1710444413.436856,391,1710444413,436662912,map,0.003665913109825322,6.126031432496663e-05,0.001050513298875615,0.9999927268485777,0.0,0.0,0.0,0.0,0.0,0.0,0.0,0.0,0.0,-0.07309551953992963,-0.00013959217231250664,0.01313720118099837,0.0,0.0,0.0,0.0,0.0,0.0,0.0,0.0,0.0,0.007534495222460938,-1.3359754468456397,-9.713616692093712,0.0,0.0,0.0,0.0,0.0,0.0,0.0,0.0,0.0
1710444413.4540489,392,1710444413,453944445,map,0.0033536592621447496,5.659976494344577e-05,0.0011258304087208456,0.9999937411163686,0.0,0.0,0.0,0.0,0.0,0.0,0.0,0.0,0.0,-0.06245290068793276,-0.0008159924700862943,0.015062436533428366,0.0,0.0,0.0,0.0,0.0,0.0,0.0,0.0,0.0,0.12652588101656181,-1.1157845053542315,-9.716996927217727,0.0,0.0,0.0,0.0,0.0,0.0,0.0,0.0,0.0
1710444413.4707572,393,1710444413,470600128,map,0.00311286773981698,5.707518116433956e-05,0.0012088095402377915,0.9999944227726241,0.0,0.0,0.0,0.0,0.0,0.0,0.0,0.0,0.0,-0.048159309832064595,0.00020095433513223535,0.016592573209855674,0.0,0.0,0.0,0.0,0.0,0.0,0.0,0.0,0.0,0.09356682823051048,-1.0386608717062469,-9.728418666730308,0.0,0.0,0.0,0.0,0.0,0.0,0.0,0.0,0.0
1710444413.487344,394,1710444413,487167120,map,0.0029310475277201653,5.4843914863685646e-05,0.0013014797740506553,0.9999948560382363,0.0,0.0,0.0,0.0,0.0,0.0,0.0,0.0,0.0,-0.036365674729191624,-0.00034797432808238073,0.018533089351239457,0.0,0.0,0.0,0.0,0.0,0.0,0.0,0.0,0.0,0.025514059113951385,-0.864427088214288,-9.73931839996461,0.0,0.0,0.0,0.0,0.0,0.0,0.0,0.0,0.0
1710444413.5040405,395,1710444413,503923893,map,0.0027608128945243726,5.165770310888857e-05,0.0014021902007041872,0.9999952045416439,0.0,0.0,0.0,0.0,0.0,0.0,0.0,0.0,0.0,-0.03404883605191133,-0.0005373231346501698,0.020141800377303832,0.0,0.0,0.0,0.0,0.0,0.0,0.0,0.0,0.0,0.06646871409315087,-0.620272228486013,-9.75087564690536,0.0,0.0,0.0,0.0,0.0,0.0,0.0,0.0,0.0
1710444413.520477,396,1710444413,520335913,map,0.0025731438749972027,5.158107165634917e-05,0.0015142677504342884,0.9999955416216473,0.0,0.0,0.0,0.0,0.0,0.0,0.0,0.0,0.0,-0.03753500056074587,9.497842320150594e-05,0.022413429592957237,0.0,0.0,0.0,0.0,0.0,0.0,0.0,0.0,0.0,0.03817878042004975,-0.3562204486995536,-9.75988013879034,0.0,0.0,0.0,0.0,0.0,0.0,0.0,0.0,0.0
1710444413.5370824,397,1710444413,536892414,map,0.0023625978228592193,4.3776171710921966e-05,0.0016387201066825215,0.9999958653972456,0.0,0.0,0.0,0.0,0.0,0.0,0.0,0.0,0.0,-0.04211265854768335,-0.0014384063301121194,0.024891804550966942,0.0,0.0,0.0,0.0,0.0,0.0,0.0,0.0,0.0,0.0020878413951909997,-0.2988451018546706,-9.77598084269555,0.0,0.0,0.0,0.0,0.0,0.0,0.0,0.0,0.0
1710444413.5535324,398,1710444413,553354025,map,0.0021413976064792242,3.9951194852486174e-05,0.0017694926513703493,0.9999961408505283,0.0,0.0,0.0,0.0,0.0,0.0,0.0,0.0,0.0,-0.04424230658097268,-0.0006364905825704538,0.02615404115310107,0.0,0.0,0.0,0.0,0.0,0.0,0.0,0.0,0.0,0.025244270711157885,-0.15559829614543066,-9.797378909153561,0.0,0.0,0.0,0.0,0.0,0.0,0.0,0.0,0.0
1710444413.5703754,399,1710444413,570272207,map,0.0019259789684400376,3.501435564901532e-05,0.0019064631022790404,0.9999963273819799,0.0,0.0,0.0,0.0,0.0,0.0,0.0,0.0,0.0,-0.043086365962149036,-0.0008583691370733389,0.027394127352948154,0.0,0.0,0.0,0.0,0.0,0.0,0.0,0.0,0.0,0.03332323309198498,-0.06769993020901788,-9.82173019935541,0.0,0.0,0.0,0.0,0.0,0.0,0.0,0.0,0.0
1710444413.5866227,400,1710444413,586501360,map,0.0017362350235960976,3.124273550295004e-05,0.002050028126919158,0.999996390941744,0.0,0.0,0.0,0.0,0.0,0.0,0.0,0.0,0.0,-0.03795102740752422,-0.0006321215287300374,0.028712879968480313,0.0,0.0,0.0,0.0,0.0,0.0,0.0,0.0,0.0,0.061087574860960094,0.046508035276169146,-9.846114085845818,0.0,0.0,0.0,0.0,0.0,0.0,0.0,0.0,0.0
1710444413.603618,401,1710444413,603479147,map,0.0015910305215155345,2.8299910135369235e-05,0.00220048755375231,0.9999963128309627,0.0,0.0,0.0,0.0,0.0,0.0,0.0,0.0,0.0,-0.029042843247113308,-0.0004811509887578588,0.03009185392018355,0.0,0.0,0.0,0.0,0.0,0.0,0.0,0.0,0.0,0.049383869664758814,0.1416757664638906,-9.8660397313833,0.0,0.0,0.0,0.0,0.0,0.0,0.0,0.0,0.0
1710444413.620392,402,1710444413,620157003,map,0.0014968440435111801,2.7096161822684565e-05,0.002357947951474848,0.9999960993949755,0.0,0.0,0.0,0.0,0.0,0.0,0.0,0.0,0.0,-0.018838555520316585,-0.0001521577839922612,0.03149189324450183,0.0,0.0,0.0,0.0,0.0,0.0,0.0,0.0,0.0,0.05479931168170946,0.22274053878172537,-9.881978850829489,0.0,0.0,0.0,0.0,0.0,0.0,0.0,0.0,0.0
1710444413.636837,403,1710444413,636705160,map,0.001441009446790314,2.7636788395835108e-05,0.0025221558247470062,0.9999957807200879,0.0,0.0,0.0,0.0,0.0,0.0,0.0,0.0,0.0,-0.011167445317972102,0.00018178259425582997,0.03284114275782425,0.0,0.0,0.0,0.0,0.0,0.0,0.0,0.0,0.0,0.045465097287552235,0.2976314794582264,-9.890341661491036,0.0,0.0,0.0,0.0,0.0,0.0,0.0,0.0,0.0
1710444413.6540308,404,1710444413,653876543,map,0.0014125892231722928,2.590200385671461e-05,0.0026928174737942028,0.9999953763167236,0.0,0.0,0.0,0.0,0.0,0.0,0.0,0.0,0.0,-0.005685674124989459,-0.00028440249443156704,0.0341327247631061,0.0,0.0,0.0,0.0,0.0,0.0,0.0,0.0,0.0,0.044435746694387095,0.41215114888192345,-9.889828037115532,0.0,0.0,0.0,0.0,0.0,0.0,0.0,0.0,0.0
1710444413.6708894,405,1710444413,670689106,map,0.0014073440015494828,2.507384679307736e-05,0.0028700944827628693,0.9999948906428591,0.0,0.0,0.0,0.0,0.0,0.0,0.0,0.0,0.0,-0.001050246644481101,-0.00011290551550502581,0.0354557058155137,0.0,0.0,0.0,0.0,0.0,0.0,0.0,0.0,0.0,0.06074884193135629,0.4931749920109989,-9.885812174364533,0.0,0.0,0.0,0.0,0.0,0.0,0.0,0.0,0.0
1710444413.6876292,406,1710444413,687340975,map,0.0014125074013059467,2.4419580624117915e-05,0.0030538596597429204,0.999994339067829,0.0,0.0,0.0,0.0,0.0,0.0,0.0,0.0,0.0,0.0010315478929233857,-8.189996137462665e-05,0.03675337490466153,0.0,0.0,0.0,0.0,0.0,0.0,0.0,0.0,0.0,0.04513909347465959,0.4404739529460933,-9.876832362526608,0.0,0.0,0.0,0.0,0.0,0.0,0.0,0.0,0.0
1710444413.7038019,407,1710444413,703542471,map,0.0014121757630362005,2.3703275553193425e-05,0.0032440174022671047,0.9999937407548424,0.0,0.0,0.0,0.0,0.0,0.0,0.0,0.0,0.0,-6.750747856848462e-05,-8.934772079423639e-05,0.03803189958020587,0.0,0.0,0.0,0.0,0.0,0.0,0.0,0.0,0.0,0.04988635727816916,0.431481448200714,-9.863466952893125,0.0,0.0,0.0,0.0,0.0,0.0,0.0,0.0,0.0
1710444413.7210124,408,1710444413,720850468,map,0.0013884940538310944,2.2800452206904706e-05,0.0034400458371590227,0.9999931188008446,0.0,0.0,0.0,0.0,0.0,0.0,0.0,0.0,0.0,-0.004737629970906734,-0.00011075921372249295,0.03920598546695393,0.0,0.0,0.0,0.0,0.0,0.0,0.0,0.0,0.0,0.049796300026571795,0.45205152527347414,-9.845069607627996,0.0,0.0,0.0,0.0,0.0,0.0,0.0,0.0,0.0
1710444413.7369049,409,1710444413,736702204,map,0.0013288186530322917,2.1390401077772594e-05,0.003641737578623884,0.9999924857371914,0.0,0.0,0.0,0.0,0.0,0.0,0.0,0.0,0.0,-0.011936674555219308,-0.00018734616758012365,0.04033861487856638,0.0,0.0,0.0,0.0,0.0,0.0,0.0,0.0,0.0,0.04596308926886525,0.4822447070321254,-9.824796578786685,0.0,0.0,0.0,0.0,0.0,0.0,0.0,0.0,0.0
1710444413.7541656,410,1710444413,753945351,map,0.0012334399627941257,2.0089720472522025e-05,0.0038490397719959163,0.9999918315241856,0.0,0.0,0.0,0.0,0.0,0.0,0.0,0.0,0.0,-0.019077226559513074,-0.00013952389425147356,0.04146052843717098,0.0,0.0,0.0,0.0,0.0,0.0,0.0,0.0,0.0,0.0453769254183821,0.5214337477524568,-9.804965462486038,0.0,0.0,0.0,0.0,0.0,0.0,0.0,0.0,0.0
1710444413.770784,411,1710444413,770647287,map,0.0011148341110927152,1.8936451130703455e-05,0.0040618968600080714,0.9999911288507585,0.0,0.0,0.0,0.0,0.0,0.0,0.0,0.0,0.0,-0.0237225273117022,-9.188565482526704e-05,0.0425714084505913,0.0,0.0,0.0,0.0,0.0,0.0,0.0,0.0,0.0,0.04329663055512061,0.5658111353578344,-9.787431453206572,0.0,0.0,0.0,0.0,0.0,0.0,0.0,0.0,0.0
1710444413.7868733,412,1710444413,786662340,map,0.0010007843303532808,1.8049715306797396e-05,0.00428068215687009,0.9999903368859141,0.0,0.0,0.0,0.0,0.0,0.0,0.0,0.0,0.0,-0.02281111783191915,-4.089978077709501e-05,0.043757076314801635,0.0,0.0,0.0,0.0,0.0,0.0,0.0,0.0,0.0,0.04073848583400223,0.6050383239221251,-9.775204119705213,0.0,0.0,0.0,0.0,0.0,0.0,0.0,0.0,0.0
1710444413.8037,413,1710444413,803527594,map,0.0009332634745225339,1.8498918976262056e-05,0.004505231625071132,0.9999894157265273,0.0,0.0,0.0,0.0,0.0,0.0,0.0,0.0,0.0,-0.013504325245623606,0.00018956298734321608,0.04490992793065803,0.0,0.0,0.0,0.0,0.0,0.0,0.0,0.0,0.0,0.04475531719681232,0.6301539388831231,-9.767872748746061,0.0,0.0,0.0,0.0,0.0,0.0,0.0,0.0,0.0
1710444413.8214357,414,1710444413,821307421,map,0.0009462572769844589,2.3329310686355677e-05,0.004737116464322587,0.999988331822183,0.0,0.0,0.0,0.0,0.0,0.0,0.0,0.0,0.0,0.0026021983760359264,0.000998249471515396,0.04637658753233302,0.0,0.0,0.0,0.0,0.0,0.0,0.0,0.0,0.0,0.05694198264451361,0.6184467344630664,-9.768571240643846,0.0,0.0,0.0,0.0,0.0,0.0,0.0,0.0,0.0
1710444413.8378658,415,1710444413,837744236,map,0.0010440945865192403,3.3338816903964834e-05,0.004973032626028883,0.9999870887674092,0.0,0.0,0.0,0.0,0.0,0.0,0.0,0.0,0.0,0.019575389882638006,0.0019584559325575776,0.047182230657963155,0.0,0.0,0.0,0.0,0.0,0.0,0.0,0.0,0.0,0.041121356709916894,0.5828114095159044,-9.773241357472438,0.0,0.0,0.0,0.0,0.0,0.0,0.0,0.0,0.0
1710444413.8533967,416,1710444413,853294611,map,0.001225251747772687,4.444914677866308e-05,0.0052110754864484726,0.9999856706346859,0.0,0.0,0.0,0.0,0.0,0.0,0.0,0.0,0.0,0.036240225080772764,0.0021002011934926797,0.04760787642365293,0.0,0.0,0.0,0.0,0.0,0.0,0.0,0.0,0.0,0.07159625898653482,0.5290772718303456,-9.777125903746652,0.0,0.0,0.0,0.0,0.0,0.0,0.0,0.0,0.0
1710444413.8708136,417,1710444413,870670557,map,0.0014850200983150556,5.189110267039606e-05,0.00545354624672812,0.9999840253003824,0.0,0.0,0.0,0.0,0.0,0.0,0.0,0.0,0.0,0.051958618829273356,0.0012896663568413758,0.04849532466653184,0.0,0.0,0.0,0.0,0.0,0.0,0.0,0.0,0.0,0.11646383644487524,0.44169508413043873,-9.785002098386077,0.0,0.0,0.0,0.0,0.0,0.0,0.0,0.0,0.0
1710444413.8878615,418,1710444413,887626886,map,0.0018202402347820285,6.942692809997492e-05,0.005700187961220007,0.9999820947209986,0.0,0.0,0.0,0.0,0.0,0.0,0.0,0.0,0.0,0.06705930281690757,0.0032312943740313367,0.049326851209156204,0.0,0.0,0.0,0.0,0.0,0.0,0.0,0.0,0.0,0.1333863191657955,0.30331511530646044,-9.79617564044431,0.0,0.0,0.0,0.0,0.0,0.0,0.0,0.0,0.0
1710444413.9037943,419,1710444413,903546572,map,0.0021957384001667756,9.593518091310558e-05,0.005953968427903032,0.9999798596918233,0.0,0.0,0.0,0.0,0.0,0.0,0.0,0.0,0.0,0.07512453786051368,0.004984956828084084,0.050751427889003234,0.0,0.0,0.0,0.0,0.0,0.0,0.0,0.0,0.0,0.05476698801417007,0.055087029180081105,-9.810426737804185,0.0,0.0,0.0,0.0,0.0,0.0,0.0,0.0,0.0
1710444413.9204645,420,1710444413,920245171,map,0.002579897601991459,0.00010706008303562218,0.006217942010715005,0.9999773346749682,0.0,0.0,0.0,0.0,0.0,0.0,0.0,0.0,0.0,0.07683908639534083,0.0019037382123445596,0.052798418541072846,0.0,0.0,0.0,0.0,0.0,0.0,0.0,0.0,0.0,0.10564553393375503,-0.06656028247012347,-9.819472673541767,0.0,0.0,0.0,0.0,0.0,0.0,0.0,0.0,0.0
1710444413.9377422,421,1710444413,937554836,map,0.0029641203955796487,0.00012894420232125426,0.006486438296514332,0.9999745614173887,0.0,0.0,0.0,0.0,0.0,0.0,0.0,0.0,0.0,0.07686462887492423,0.0040581450058992915,0.053696869050014695,0.0,0.0,0.0,0.0,0.0,0.0,0.0,0.0,0.0,0.27685332274050967,-0.2076961874565989,-9.828794746409606,0.0,0.0,0.0,0.0,0.0,0.0,0.0,0.0,0.0
1710444413.9545355,422,1710444413,954358578,map,0.0033132548227778735,0.00016371659694866994,0.00676032301480964,0.9999716463840815,0.0,0.0,0.0,0.0,0.0,0.0,0.0,0.0,0.0,0.06986305798211796,0.006682945908215565,0.05476539130839735,0.0,0.0,0.0,0.0,0.0,0.0,0.0,0.0,0.0,0.017716221077342262,-0.5106502261076481,-9.842398574610867,0.0,0.0,0.0,0.0,0.0,0.0,0.0,0.0,0.0
1710444413.9713652,423,1710444413,971193552,map,0.003612577991278793,0.00020017623740896498,0.00704061021955873,0.9999686690179184,0.0,0.0,0.0,0.0,0.0,0.0,0.0,0.0,0.0,0.059903044181206413,0.007089633601995964,0.05604339775765289,0.0,0.0,0.0,0.0,0.0,0.0,0.0,0.0,0.0,0.03478415800003143,-0.5658880713299926,-9.8471711369178,0.0,0.0,0.0,0.0,0.0,0.0,0.0,0.0,0.0
1710444413.9872727,424,1710444413,987062454,map,0.0038524048121137034,0.00023480971376060397,0.007327014881040756,0.9999657087593029,0.0,0.0,0.0,0.0,0.0,0.0,0.0,0.0,0.0,0.0480013547423203,0.006809567931795979,0.05726625245590174,0.0,0.0,0.0,0.0,0.0,0.0,0.0,0.0,0.0,0.11666099627063534,-0.6856225338142838,-9.84951108477538,0.0,0.0,0.0,0.0,0.0,0.0,0.0,0.0,0.0
1710444414.0037754,425,1710444414,3562212,map,0.004029419468454908,0.00026622791318819977,0.0076223606213200075,0.9999627955679171,0.0,0.0,0.0,0.0,0.0,0.0,0.0,0.0,0.0,0.03543428482948064,0.006262184809221364,0.05905438966219434,0.0,0.0,0.0,0.0,0.0,0.0,0.0,0.0,0.0,0.14659247162340286,-0.797188861149706,-9.84815088821976,0.0,0.0,0.0,0.0,0.0,0.0,0.0,0.0,0.0
1710444414.0204742,426,1710444414,20374060,map,0.004141126435324598,0.0002904163983000907,0.007925837531720274,0.9999599731137158,0.0,0.0,0.0,0.0,0.0,0.0,0.0,0.0,0.0,0.022362061271256548,0.004918725598517408,0.06068333285213771,0.0,0.0,0.0,0.0,0.0,0.0,0.0,0.0,0.0,0.18005060289582372,-0.8971260841903926,-9.841809513110402,0.0,0.0,0.0,0.0,0.0,0.0,0.0,0.0,0.0
1710444414.0368865,427,1710444414,36734581,map,0.004187241369746003,0.0003064084575530473,0.008238985543831538,0.9999572452064025,0.0,0.0,0.0,0.0,0.0,0.0,0.0,0.0,0.0,0.009230978258650106,0.0033875899018280453,0.06262069796808288,0.0,0.0,0.0,0.0,0.0,0.0,0.0,0.0,0.0,0.18890007846483267,-0.9512602249027495,-9.830541441815335,0.0,0.0,0.0,0.0,0.0,0.0,0.0,0.0,0.0
1710444414.0538628,428,1710444414,53649902,map,0.0041564107110928184,0.0003152328148782254,0.00856346454242461,0.9999546449481116,0.0,0.0,0.0,0.0,0.0,0.0,0.0,0.0,0.0,-0.006169711332194808,0.0020854908107614946,0.06488809601961437,0.0,0.0,0.0,0.0,0.0,0.0,0.0,0.0,0.0,0.18935999180904564,-0.9743412784846451,-9.816378820095844,0.0,0.0,0.0,0.0,0.0,0.0,0.0,0.0,0.0
1710444414.0702608,429,1710444414,70148230,map,0.004021082301987278,0.0003232628407211872,0.008900354190870405,0.9999522539069221,0.0,0.0,0.0,0.0,0.0,0.0,0.0,0.0,0.0,-0.027070665295391323,0.0021087916213755552,0.0673640489972777,0.0,0.0,0.0,0.0,0.0,0.0,0.0,0.0,0.0,0.1625591476208784,-0.9283418908292088,-9.797416162054777,0.0,0.0,0.0,0.0,0.0,0.0,0.0,0.0,0.0
1710444414.0873535,430,1710444414,87096453,map,0.003745195252242413,0.0003262024017118365,0.009265540105398571,0.9999500071858948,0.0,0.0,0.0,0.0,0.0,0.0,0.0,0.0,0.0,-0.05519184439780286,0.0013526665866214745,0.07301787182330043,0.0,0.0,0.0,0.0,0.0,0.0,0.0,0.0,0.0,0.07016488810741874,-0.798536513954995,-9.773724713865704,0.0,0.0,0.0,0.0,0.0,0.0,0.0,0.0,0.0
1710444414.1037807,431,1710444414,103495836,map,0.003319371599005568,0.0003124544847277531,0.00967479714743123,0.9999476398514768,0.0,0.0,0.0,0.0,0.0,0.0,0.0,0.0,0.0,-0.08521019512838027,-0.0016885102973934066,0.08183351045981692,0.0,0.0,0.0,0.0,0.0,0.0,0.0,0.0,0.0,-0.09959262642848869,-0.5908456816029458,-9.748390878394307,0.0,0.0,0.0,0.0,0.0,0.0,0.0,0.0,0.0
1710444414.1204107,432,1710444414,120269299,map,0.002800058785318353,0.0002994810282974558,0.010102724489445065,0.9999450009574541,0.0,0.0,0.0,0.0,0.0,0.0,0.0,0.0,0.0,-0.10390665394542219,-0.001349903704777236,0.08556156654807562,0.0,0.0,0.0,0.0,0.0,0.0,0.0,0.0,0.0,-0.11688512485833712,-0.217753976019609,-9.729113898999236,0.0,0.0,0.0,0.0,0.0,0.0,0.0,0.0,0.0
1710444414.136703,433,1710444414,136487961,map,0.002243429616730258,0.0002985430732559819,0.0105380043203417,0.9999419124931871,0.0,0.0,0.0,0.0,0.0,0.0,0.0,0.0,0.0,-0.11134645724088339,0.0011326108658778274,0.08702525065121525,0.0,0.0,0.0,0.0,0.0,0.0,0.0,0.0,0.0,-0.04734512961244759,-0.06754611647235981,-9.72655183071816,0.0,0.0,0.0,0.0,0.0,0.0,0.0,0.0,0.0
1710444414.153264,434,1710444414,153144121,map,0.0017007292290826684,0.00030214626442338655,0.010983493807999333,0.9999381876353628,0.0,0.0,0.0,0.0,0.0,0.0,0.0,0.0,0.0,-0.10855202085870029,0.0020161575747549452,0.08906766233838205,0.0,0.0,0.0,0.0,0.0,0.0,0.0,0.0,0.0,0.01694549165680532,0.1970190985147152,-9.728292472527441,0.0,0.0,0.0,0.0,0.0,0.0,0.0,0.0,0.0
1710444414.1698968,435,1710444414,169796467,map,0.001207701847961472,0.00029782211298149037,0.011441717723973323,0.9999337677335237,0.0,0.0,0.0,0.0,0.0,0.0,0.0,0.0,0.0,-0.09863523191859132,0.00032920080117193644,0.09162068187356442,0.0,0.0,0.0,0.0,0.0,0.0,0.0,0.0,0.0,0.07997867380544789,0.45454376983062156,-9.73641500197615,0.0,0.0,0.0,0.0,0.0,0.0,0.0,0.0,0.0
1710444414.1867177,436,1710444414,186606646,map,0.000788509934140237,0.0002961456525622904,0.011911086210917856,0.9999287057461209,0.0,0.0,0.0,0.0,0.0,0.0,0.0,0.0,0.0,-0.0838637406519212,0.0006983032516759489,0.09385480400398732,0.0,0.0,0.0,0.0,0.0,0.0,0.0,0.0,0.0,0.16497161767303828,0.7297712526346242,-9.747367820594684,0.0,0.0,0.0,0.0,0.0,0.0,0.0,0.0,0.0
1710444414.2031028,437,1710444414,202984571,map,0.00046634677889092514,0.000292579667374582,0.012391356834173516,0.9999230726379046,0.0,0.0,0.0,0.0,0.0,0.0,0.0,0.0,0.0,-0.06446414628197086,9.943332871558379e-05,0.09604221748052418,0.0,0.0,0.0,0.0,0.0,0.0,0.0,0.0,0.0,0.10231166803066612,0.9865131109839597,-9.760912044154,0.0,0.0,0.0,0.0,0.0,0.0,0.0,0.0,0.0
1710444414.2202668,438,1710444414,220138311,map,0.0002574622874594269,0.00028852285868712936,0.012882211532740289,0.9999169460979028,0.0,0.0,0.0,0.0,0.0,0.0,0.0,0.0,0.0,-0.04181176356826429,-0.00026800931221898194,0.09816667627279875,0.0,0.0,0.0,0.0,0.0,0.0,0.0,0.0,0.0,0.1358044864061835,1.1054393601348556,-9.78179834888157,0.0,0.0,0.0,0.0,0.0,0.0,0.0,0.0,0.0
1710444414.2366102,439,1710444414,236427069,map,0.00015954672883582255,0.00029246883769100645,0.013382956044492482,0.9999103887320762,0.0,0.0,0.0,0.0,0.0,0.0,0.0,0.0,0.0,-0.019600408443983173,0.0010577520618084712,0.10015173423437067,0.0,0.0,0.0,0.0,0.0,0.0,0.0,0.0,0.0,0.12536795243503007,1.1872412305797424,-9.804654866422156,0.0,0.0,0.0,0.0,0.0,0.0,0.0,0.0,0.0
1710444414.2537584,440,1710444414,253645658,map,0.00014956668026065579,0.0003024461040245493,0.013892263180345645,0.999903440928118,0.0,0.0,0.0,0.0,0.0,0.0,0.0,0.0,0.0,-0.001999733504899059,0.0020376267226768956,0.10187001832004988,0.0,0.0,0.0,0.0,0.0,0.0,0.0,0.0,0.0,0.06160292903846187,1.2390732875161454,-9.827562141040648,0.0,0.0,0.0,0.0,0.0,0.0,0.0,0.0,0.0
1710444414.269888,441,1710444414,269736290,map,0.00018868223629047386,0.0003146244112947343,0.01441080184009482,0.9998960917019424,0.0,0.0,0.0,0.0,0.0,0.0,0.0,0.0,0.0,0.007823830528745353,0.0023467590770122173,0.10372005221251306,0.0,0.0,0.0,0.0,0.0,0.0,0.0,0.0,0.0,0.07493416350065513,1.2869441386925513,-9.846623519269937,0.0,0.0,0.0,0.0,0.0,0.0,0.0,0.0,0.0
1710444414.2865252,442,1710444414,286340237,map,0.00023813175609817323,0.00031401001915901003,0.01493804402657856,0.999888343532234,0.0,0.0,0.0,0.0,0.0,0.0,0.0,0.0,0.0,0.009854349105503146,-0.00023980699521325053,0.10546296341826314,0.0,0.0,0.0,0.0,0.0,0.0,0.0,0.0,0.0,0.06497162995121616,1.2863562413452487,-9.862112344272687,0.0,0.0,0.0,0.0,0.0,0.0,0.0,0.0,0.0
1710444414.303175,443,1710444414,303001642,map,0.0002891682369344887,0.0002933661156397934,0.015470990551716638,0.9998802322125394,0.0,0.0,0.0,0.0,0.0,0.0,0.0,0.0,0.0,0.010113663314598323,-0.004249514754233697,0.10660604557883968,0.0,0.0,0.0,0.0,0.0,0.0,0.0,0.0,0.0,0.16025268690187994,1.2730136491137594,-9.872448161714845,0.0,0.0,0.0,0.0,0.0,0.0,0.0,0.0,0.0
1710444414.3203602,444,1710444414,320142031,map,0.00035333262855132545,0.00030388373356512766,0.016009776810387254,0.9998717267015863,0.0,0.0,0.0,0.0,0.0,0.0,0.0,0.0,0.0,0.012831719214678692,0.0019433082268304255,0.10777370084474719,0.0,0.0,0.0,0.0,0.0,0.0,0.0,0.0,0.0,0.19480327848813758,1.2435659291950405,-9.885268282006791,0.0,0.0,0.0,0.0,0.0,0.0,0.0,0.0,0.0
1710444414.3365417,445,1710444414,336420536,map,0.0004092119983955908,0.0003210851847856789,0.016555321886714342,0.9998628159738074,0.0,0.0,0.0,0.0,0.0,0.0,0.0,0.0,0.0,0.011195189675593308,0.003306127942481313,0.10912555238112183,0.0,0.0,0.0,0.0,0.0,0.0,0.0,0.0,0.0,-0.09605804278495704,1.1657619644386132,-9.897002945889579,0.0,0.0,0.0,0.0,0.0,0.0,0.0,0.0,0.0
1710444414.3532233,446,1710444414,353046417,map,0.000452868653279667,0.00031895054594861994,0.017106472068895977,0.9998535201687737,0.0,0.0,0.0,0.0,0.0,0.0,0.0,0.0,0.0,0.008688721289974671,-0.0005209252707548089,0.11024870016882826,0.0,0.0,0.0,0.0,0.0,0.0,0.0,0.0,0.0,0.03301838139636679,1.1975336833165793,-9.894852056505666,0.0,0.0,0.0,0.0,0.0,0.0,0.0,0.0,0.0
1710444414.3711576,447,1710444414,371038675,map,0.0004993044327680052,0.00033269610479120387,0.01766315461385286,0.9998438142917485,0.0,0.0,0.0,0.0,0.0,0.0,0.0,0.0,0.0,0.009296719565256881,0.0026460551541395874,0.11135500714329481,0.0,0.0,0.0,0.0,0.0,0.0,0.0,0.0,0.0,0.17520365131546398,1.1410801129461399,-9.8867369776372,0.0,0.0,0.0,0.0,0.0,0.0,0.0,0.0,0.0
1710444414.3884294,448,1710444414,388292551,map,0.0005638972753250767,0.00034994538194010264,0.018229340087364165,0.9998336115164722,0.0,0.0,0.0,0.0,0.0,0.0,0.0,0.0,0.0,0.012938972903913857,0.00328568033952662,0.11325782049418352,0.0,0.0,0.0,0.0,0.0,0.0,0.0,0.0,0.0,0.013517528072098333,1.0725472311490134,-9.87960770366714,0.0,0.0,0.0,0.0,0.0,0.0,0.0,0.0,0.0
1710444414.4046307,449,1710444414,404497623,map,0.0006674453817835012,0.0003650981053675846,0.018801602171785194,0.9998229448136354,0.0,0.0,0.0,0.0,0.0,0.0,0.0,0.0,0.0,0.020721012176372733,0.002729664579049539,0.11447752510033576,0.0,0.0,0.0,0.0,0.0,0.0,0.0,0.0,0.0,0.05876318840014506,1.0015875847721782,-9.8661025956541,0.0,0.0,0.0,0.0,0.0,0.0,0.0,0.0,0.0
1710444414.4202888,450,1710444414,420144081,map,0.0008223355377458018,0.00038323391049479904,0.01938314681862356,0.9998117175325767,0.0,0.0,0.0,0.0,0.0,0.0,0.0,0.0,0.0,0.03099795588234061,0.00314056378737772,0.11633896474890697,0.0,0.0,0.0,0.0,0.0,0.0,0.0,0.0,0.0,0.1342964433083603,0.9148763640237092,-9.851565582277399,0.0,0.0,0.0,0.0,0.0,0.0,0.0,0.0,0.0
1710444414.4369345,451,1710444414,436800957,map,0.0010189153519006666,0.000404934816814116,0.01997524924368915,0.9997998736031889,0.0,0.0,0.0,0.0,0.0,0.0,0.0,0.0,0.0,0.039347068289781115,0.0036988911570912807,0.11845488269694585,0.0,0.0,0.0,0.0,0.0,0.0,0.0,0.0,0.0,0.10326266293051112,0.8058332804613771,-9.833658578324515,0.0,0.0,0.0,0.0,0.0,0.0,0.0,0.0,0.0
1710444414.4539647,452,1710444414,453817606,map,0.0012454988111642886,0.00042559980087083403,0.02057749287302227,0.999787394591761,0.0,0.0,0.0,0.0,0.0,0.0,0.0,0.0,0.0,0.0453419231325735,0.0033780116223244595,0.12048785887640556,0.0,0.0,0.0,0.0,0.0,0.0,0.0,0.0,0.0,0.09672258506612681,0.7090021781305679,-9.814223739760545,0.0,0.0,0.0,0.0,0.0,0.0,0.0,0.0,0.0
1710444414.4704251,453,1710444414,470324993,map,0.0014910213876574397,0.00045065524277902226,0.021188155139633843,0.9997742924514775,0.0,0.0,0.0,0.0,0.0,0.0,0.0,0.0,0.0,0.04914592975030019,0.00418282895392163,0.12217405017810419,0.0,0.0,0.0,0.0,0.0,0.0,0.0,0.0,0.0,0.1269652324202686,0.6004513640091572,-9.794240352226181,0.0,0.0,0.0,0.0,0.0,0.0,0.0,0.0,0.0
1710444414.4867783,454,1710444414,486639738,map,0.001748077609798507,0.0004749479807954466,0.021802796529928014,0.999760649712,0.0,0.0,0.0,0.0,0.0,0.0,0.0,0.0,0.0,0.05144881472756915,0.0039842949200623225,0.12297325656886991,0.0,0.0,0.0,0.0,0.0,0.0,0.0,0.0,0.0,0.12309147820967213,0.47425645719379717,-9.779097979204732,0.0,0.0,0.0,0.0,0.0,0.0,0.0,0.0,0.0
1710444414.5036554,455,1710444414,503538847,map,0.00200635578349273,0.000505032278451681,0.022422771272264035,0.9997464372566374,0.0,0.0,0.0,0.0,0.0,0.0,0.0,0.0,0.0,0.05171735616638121,0.005139361176954495,0.1240399434664628,0.0,0.0,0.0,0.0,0.0,0.0,0.0,0.0,0.0,0.1842071927785251,0.3376181760979565,-9.766859935494272,0.0,0.0,0.0,0.0,0.0,0.0,0.0,0.0,0.0
1710444414.5207171,456,1710444414,520480871,map,0.0022479371050944607,0.0005327211303886018,0.023047749788246873,0.9997316961148462,0.0,0.0,0.0,0.0,0.0,0.0,0.0,0.0,0.0,0.04836802285635456,0.0047354977739523605,0.12504227353359681,0.0,0.0,0.0,0.0,0.0,0.0,0.0,0.0,0.0,0.15949296873317434,0.20806742134835712,-9.758672213468436,0.0,0.0,0.0,0.0,0.0,0.0,0.0,0.0,0.0
1710444414.537029,457,1710444414,536890507,map,0.0024585538302592047,0.0005569323704455274,0.02367924406540535,0.9997164291637352,0.0,0.0,0.0,0.0,0.0,0.0,0.0,0.0,0.0,0.04216059452249355,0.004182274033731585,0.12634602726198627,0.0,0.0,0.0,0.0,0.0,0.0,0.0,0.0,0.0,0.20011923565923373,0.08843754347384468,-9.753473105442591,0.0,0.0,0.0,0.0,0.0,0.0,0.0,0.0,0.0
1710444414.5544107,458,1710444414,554101229,map,0.002632469160351267,0.0005812028446375866,0.024318345074828152,0.9997006303900158,0.0,0.0,0.0,0.0,0.0,0.0,0.0,0.0,0.0,0.03482194020061514,0.004367357840961977,0.12786546444869462,0.0,0.0,0.0,0.0,0.0,0.0,0.0,0.0,0.0,0.19839100572355903,-0.011171708517002749,-9.751855863868586,0.0,0.0,0.0,0.0,0.0,0.0,0.0,0.0,0.0
1710444414.570834,459,1710444414,570704699,map,0.002769407142066282,0.0006053368540988179,0.02496496447278708,0.9996843074192208,0.0,0.0,0.0,0.0,0.0,0.0,0.0,0.0,0.0,0.027427290210508215,0.004519416331542285,0.12936715531549353,0.0,0.0,0.0,0.0,0.0,0.0,0.0,0.0,0.0,0.18231702277141795,-0.09667485842442347,-9.755897803650434,0.0,0.0,0.0,0.0,0.0,0.0,0.0,0.0,0.0
1710444414.5866191,460,1710444414,586494446,map,0.00287517556550548,0.0006277503500686567,0.0256197175768777,0.9996674293815152,0.0,0.0,0.0,0.0,0.0,0.0,0.0,0.0,0.0,0.02118616367510122,0.004331759217416569,0.13099349455143508,0.0,0.0,0.0,0.0,0.0,0.0,0.0,0.0,0.0,0.18966453544176992,-0.17235959876297086,-9.763495532853275,0.0,0.0,0.0,0.0,0.0,0.0,0.0,0.0,0.0
1710444414.6034412,461,1710444414,603340149,map,0.0029614382623752078,0.0006488615429237722,0.026283935716761943,0.9996499205148538,0.0,0.0,0.0,0.0,0.0,0.0,0.0,0.0,0.0,0.017278879998329413,0.004174457857468129,0.13288750279656336,0.0,0.0,0.0,0.0,0.0,0.0,0.0,0.0,0.0,0.20793290163138603,-0.23653403663706418,-9.773403407592724,0.0,0.0,0.0,0.0,0.0,0.0,0.0,0.0,0.0
1710444414.6208365,462,1710444414,620699167,map,0.003040734861733411,0.0006701949572769558,0.02695852494261984,0.9996317035304243,0.0,0.0,0.0,0.0,0.0,0.0,0.0,0.0,0.0,0.015886288010561512,0.004260980121992331,0.13496370324018236,0.0,0.0,0.0,0.0,0.0,0.0,0.0,0.0,0.0,0.2170306239948265,-0.2876154476139808,-9.78722749357242,0.0,0.0,0.0,0.0,0.0,0.0,0.0,0.0,0.0
1710444414.6376328,463,1710444414,637427568,map,0.003125708910071844,0.0006906962002463824,0.027644765952031802,0.9996126848925166,0.0,0.0,0.0,0.0,0.0,0.0,0.0,0.0,0.0,0.017015878794917446,0.004072150388642143,0.13729878365955808,0.0,0.0,0.0,0.0,0.0,0.0,0.0,0.0,0.0,0.21677308421134736,-0.3380631518166319,-9.79934912196658,0.0,0.0,0.0,0.0,0.0,0.0,0.0,0.0,0.0
1710444414.6534579,464,1710444414,653337002,map,0.003228165304594199,0.0007091641519028223,0.028344456943199703,0.999592750971898,0.0,0.0,0.0,0.0,0.0,0.0,0.0,0.0,0.0,0.020498756497518793,0.003580192530453687,0.13999646517240413,0.0,0.0,0.0,0.0,0.0,0.0,0.0,0.0,0.0,0.23556646164959338,-0.3858262024101463,-9.813155512818199,0.0,0.0,0.0,0.0,0.0,0.0,0.0,0.0,0.0
1710444414.6705074,465,1710444414,670386791,map,0.0033543407888159244,0.0007271757343114715,0.029059207041888326,0.9995717993718213,0.0,0.0,0.0,0.0,0.0,0.0,0.0,0.0,0.0,0.025236675680140118,0.0033680594275774293,0.14301643113358092,0.0,0.0,0.0,0.0,0.0,0.0,0.0,0.0,0.0,0.2502893666395613,-0.427461529103538,-9.824606123329222,0.0,0.0,0.0,0.0,0.0,0.0,0.0,0.0,0.0
1710444414.6879418,466,1710444414,687809706,map,0.0035040679416534423,0.000743511018167598,0.029791782216071514,0.9995497078242865,0.0,0.0,0.0,0.0,0.0,0.0,0.0,0.0,0.0,0.02993369806124605,0.0029120824729481835,0.1465910852820003,0.0,0.0,0.0,0.0,0.0,0.0,0.0,0.0,0.0,0.2406464786258569,-0.47063985350296594,-9.834558235888863,0.0,0.0,0.0,0.0,0.0,0.0,0.0,0.0,0.0
1710444414.703814,467,1710444414,703653336,map,0.003656581437320906,0.0007590713446277438,0.0305445618238718,0.9995264293483558,0.0,0.0,0.0,0.0,0.0,0.0,0.0,0.0,0.0,0.03048398490139456,0.0027559149970940305,0.15063819901891323,0.0,0.0,0.0,0.0,0.0,0.0,0.0,0.0,0.0,0.25112358242524535,-0.5143476056570859,-9.840032084061171,0.0,0.0,0.0,0.0,0.0,0.0,0.0,0.0,0.0
1710444414.720658,468,1710444414,720508337,map,0.0037759505549874606,0.000778994879198929,0.031316831987924586,0.9995020717330328,0.0,0.0,0.0,0.0,0.0,0.0,0.0,0.0,0.0,0.02388183995956366,0.0038405297876086732,0.15453279589301672,0.0,0.0,0.0,0.0,0.0,0.0,0.0,0.0,0.0,0.25078353328634034,-0.5258419301193781,-9.840990414944933,0.0,0.0,0.0,0.0,0.0,0.0,0.0,0.0,0.0
1710444414.737014,469,1710444414,736889839,map,0.0038245172992314065,0.000792443787177253,0.03210982449159615,0.9994767152222161,0.0,0.0,0.0,0.0,0.0,0.0,0.0,0.0,0.0,0.009685976389027582,0.0029947471660443266,0.15867562915724293,0.0,0.0,0.0,0.0,0.0,0.0,0.0,0.0,0.0,0.23629400280677326,-0.5595529244400569,-9.835582225011017,0.0,0.0,0.0,0.0,0.0,0.0,0.0,0.0,0.0
1710444414.7538981,470,1710444414,753801823,map,0.003764007270766864,0.0007968170748763781,0.03293122377620372,0.9994502147843165,0.0,0.0,0.0,0.0,0.0,0.0,0.0,0.0,0.0,-0.012179053431009678,0.0018852767262382954,0.16435127496666097,0.0,0.0,0.0,0.0,0.0,0.0,0.0,0.0,0.0,0.2955954374218198,-0.5328953595108694,-9.824866893637727,0.0,0.0,0.0,0.0,0.0,0.0,0.0,0.0,0.0
1710444414.7707922,471,1710444414,770686865,map,0.003571081990059592,0.00078997372866989,0.033800196692934666,0.9994219179197779,0.0,0.0,0.0,0.0,0.0,0.0,0.0,0.0,0.0,-0.03872656881509049,0.0005277451309036602,0.17385993752457957,0.0,0.0,0.0,0.0,0.0,0.0,0.0,0.0,0.0,0.060043305770066946,-0.42669033584072524,-9.810980409048497,0.0,0.0,0.0,0.0,0.0,0.0,0.0,0.0,0.0
1710444414.7873952,472,1710444414,787102222,map,0.0032360702828340845,0.0007771103428126552,0.03471941136449149,0.9993915581108052,0.0,0.0,0.0,0.0,0.0,0.0,0.0,0.0,0.0,-0.06717441231927178,0.0002930511035897406,0.18389828337390465,0.0,0.0,0.0,0.0,0.0,0.0,0.0,0.0,0.0,-0.16764843825942805,-0.2666696255559559,-9.796920698468615,0.0,0.0,0.0,0.0,0.0,0.0,0.0,0.0,0.0
1710444414.803709,473,1710444414,803459883,map,0.0027848670775781873,0.0007721558290864696,0.035649671471124834,0.9993601699161002,0.0,0.0,0.0,0.0,0.0,0.0,0.0,0.0,0.0,-0.09034692899450582,0.0026656955770324076,0.18609110514913002,0.0,0.0,0.0,0.0,0.0,0.0,0.0,0.0,0.0,-0.21208405535082628,0.04893401405249283,-9.782735725008397,0.0,0.0,0.0,0.0,0.0,0.0,0.0,0.0,0.0
1710444414.8209925,474,1710444414,820904970,map,0.0022678376896277247,0.000769947362344255,0.03659156976481711,0.9993274343854567,0.0,0.0,0.0,0.0,0.0,0.0,0.0,0.0,0.0,-0.10348620197920255,0.0036771524493170926,0.18841587035093071,0.0,0.0,0.0,0.0,0.0,0.0,0.0,0.0,0.0,0.0027483546150232803,0.3137818999794527,-9.773063009207869,0.0,0.0,0.0,0.0,0.0,0.0,0.0,0.0,0.0
1710444414.8375857,475,1710444414,837370872,map,0.0017300994050690802,0.0007580740864663843,0.037546982963322414,0.9992930782058286,0.0,0.0,0.0,0.0,0.0,0.0,0.0,0.0,0.0,-0.10769562534183859,0.0018979966916337781,0.19112921153387935,0.0,0.0,0.0,0.0,0.0,0.0,0.0,0.0,0.0,0.13433828006265472,0.4462403237044285,-9.772338905940499,0.0,0.0,0.0,0.0,0.0,0.0,0.0,0.0,0.0
1710444414.8533282,476,1710444414,853133440,map,0.0012225881750528344,0.0007441450466809605,0.03851616177549673,0.9992569523442845,0.0,0.0,0.0,0.0,0.0,0.0,0.0,0.0,0.0,-0.1016708151002162,0.0012695284860181715,0.19389859343608257,0.0,0.0,0.0,0.0,0.0,0.0,0.0,0.0,0.0,0.24653451066568025,0.690580080058813,-9.773183149814288,0.0,0.0,0.0,0.0,0.0,0.0,0.0,0.0,0.0
1710444414.8705904,477,1710444414,870453358,map,0.0007928013648242252,0.0007344098852469192,0.03950012771385572,0.9992189810140245,0.0,0.0,0.0,0.0,0.0,0.0,0.0,0.0,0.0,-0.08610718905979432,0.0015266479623555122,0.19687858593421853,0.0,0.0,0.0,0.0,0.0,0.0,0.0,0.0,0.0,0.22911364434073134,0.9154288129071989,-9.777776898195388,0.0,0.0,0.0,0.0,0.0,0.0,0.0,0.0,0.0
1710444414.8865528,478,1710444414,886395454,map,0.00047539545636014996,0.0007300785287227625,0.04050011436813286,0.9991791539662296,0.0,0.0,0.0,0.0,0.0,0.0,0.0,0.0,0.0,-0.06360816110261622,0.0017426857768891102,0.20011042717312152,0.0,0.0,0.0,0.0,0.0,0.0,0.0,0.0,0.0,0.20813744516111007,1.1087670628473907,-9.785468690973797,0.0,0.0,0.0,0.0,0.0,0.0,0.0,0.0,0.0
1710444414.9041321,479,1710444414,904017210,map,0.00029241667657422507,0.0007305343534377172,0.04151644019892479,0.9991375110590408,0.0,0.0,0.0,0.0,0.0,0.0,0.0,0.0,0.0,-0.03670815017415925,0.001638601270985385,0.203409203388703,0.0,0.0,0.0,0.0,0.0,0.0,0.0,0.0,0.0,0.21942506695335878,1.2578368753663445,-9.79502452579676,0.0,0.0,0.0,0.0,0.0,0.0,0.0,0.0,0.0
1710444414.9208825,480,1710444414,920753717,map,0.00024899841449183203,0.0007404917012358267,0.042546728633032875,0.9990941725155127,0.0,0.0,0.0,0.0,0.0,0.0,0.0,0.0,0.0,-0.008743969302083321,0.002407837845898237,0.2062330327406327,0.0,0.0,0.0,0.0,0.0,0.0,0.0,0.0,0.0,0.23806856876681837,1.3481683505172042,-9.80483740563811,0.0,0.0,0.0,0.0,0.0,0.0,0.0,0.0,0.0
1710444414.9386268,481,1710444414,938469887,map,0.0003307834451023896,0.000762687921902858,0.04359081256686284,0.9990491228909653,0.0,0.0,0.0,0.0,0.0,0.0,0.0,0.0,0.0,0.016374702975572152,0.0038150681023277977,0.2090217109104386,0.0,0.0,0.0,0.0,0.0,0.0,0.0,0.0,0.0,0.19629470420905396,1.3719841302640823,-9.81381675181477,0.0,0.0,0.0,0.0,0.0,0.0,0.0,0.0,0.0
1710444414.954734,482,1710444414,954506159,map,0.0005168058263559616,0.0008059897672321219,0.04463574909305814,0.9990028694629133,0.0,0.0,0.0,0.0,0.0,0.0,0.0,0.0,0.0,0.03738282553887103,0.007145655158621391,0.2092160459169532,0.0,0.0,0.0,0.0,0.0,0.0,0.0,0.0,0.0,0.16884120776234046,1.3414822696562896,-9.82434675000451,0.0,0.0,0.0,0.0,0.0,0.0,0.0,0.0,0.0
1710444414.971661,483,1710444414,971482992,map,0.0008000992522151956,0.0008657924206509189,0.04569485945562464,0.9989547487569203,0.0,0.0,0.0,0.0,0.0,0.0,0.0,0.0,0.0,0.05696015978855416,0.009597235002212002,0.2120772393471142,0.0,0.0,0.0,0.0,0.0,0.0,0.0,0.0,0.0,0.2002085616771256,1.216053788532742,-9.834786409908807,0.0,0.0,0.0,0.0,0.0,0.0,0.0,0.0,0.0
1710444414.9880643,484,1710444414,987967730,map,0.001164413982672387,0.0009147678455413147,0.046772684664241504,0.9989044615523375,0.0,0.0,0.0,0.0,0.0,0.0,0.0,0.0,0.0,0.07304857994375256,0.00671540846392361,0.21585214626073987,0.0,0.0,0.0,0.0,0.0,0.0,0.0,0.0,0.0,0.21878663444484736,0.9911302006359769,-9.848506653426364,0.0,0.0,0.0,0.0,0.0,0.0,0.0,0.0,0.0
1710444415.004473,485,1710444415,4365206,map,0.0015742518394449082,0.0009539444233852516,0.04786042614124673,0.9988523371003151,0.0,0.0,0.0,0.0,0.0,0.0,0.0,0.0,0.0,0.08205270199858938,0.004345124572598729,0.21786169956520968,0.0,0.0,0.0,0.0,0.0,0.0,0.0,0.0,0.0,0.3500581476315013,0.8320522797902429,-9.85915725788379,0.0,0.0,0.0,0.0,0.0,0.0,0.0,0.0,0.0
1710444415.0215058,486,1710444415,21413803,map,0.001994997413086268,0.0010041642991265923,0.048960730392664714,0.9987982071063198,0.0,0.0,0.0,0.0,0.0,0.0,0.0,0.0,0.0,0.08433330688492056,0.006454728975773431,0.22038823592643317,0.0,0.0,0.0,0.0,0.0,0.0,0.0,0.0,0.0,0.2870084363269338,0.6682798167273676,-9.866598990562792,0.0,0.0,0.0,0.0,0.0,0.0,0.0,0.0,0.0
1710444415.0383122,487,1710444415,38214922,map,0.0023831615800934945,0.0010553921954536637,0.05007326742892664,0.9987421461904911,0.0,0.0,0.0,0.0,0.0,0.0,0.0,0.0,0.0,0.07783237968787214,0.0069741937142729065,0.2228438213550578,0.0,0.0,0.0,0.0,0.0,0.0,0.0,0.0,0.0,0.2083789669246624,0.4775433690708952,-9.87084442431753,0.0,0.0,0.0,0.0,0.0,0.0,0.0,0.0,0.0
1710444415.054673,488,1710444415,54559708,map,0.0027030967159517158,0.0011043036349850687,0.051198523460475764,0.9986842268590673,0.0,0.0,0.0,0.0,0.0,0.0,0.0,0.0,0.0,0.06417840359445894,0.007186833420245119,0.22539013872554364,0.0,0.0,0.0,0.0,0.0,0.0,0.0,0.0,0.0,0.23686426323365659,0.3167313402255081,-9.867380370165781,0.0,0.0,0.0,0.0,0.0,0.0,0.0,0.0,0.0
1710444415.0712996,489,1710444415,71146488,map,0.002933580474107622,0.0011524262552111638,0.052333340864866386,0.9986246979988278,0.0,0.0,0.0,0.0,0.0,0.0,0.0,0.0,0.0,0.04630142285071174,0.00793105287856723,0.22729751427211686,0.0,0.0,0.0,0.0,0.0,0.0,0.0,0.0,0.0,0.23539943841251418,0.17894166253877358,-9.860053655819282,0.0,0.0,0.0,0.0,0.0,0.0,0.0,0.0,0.0
1710444415.0866334,490,1710444415,86435795,map,0.0030627029472481545,0.0011973222459880739,0.05347595396147405,0.9985637228629961,0.0,0.0,0.0,0.0,0.0,0.0,0.0,0.0,0.0,0.026021795257196546,0.008329591148337387,0.2288489261647876,0.0,0.0,0.0,0.0,0.0,0.0,0.0,0.0,0.0,0.24003297900391563,0.06948416955425157,-9.847899431136558,0.0,0.0,0.0,0.0,0.0,0.0,0.0,0.0,0.0
1710444415.103981,491,1710444415,103741169,map,0.00309462117292993,0.0012341751231880152,0.05462329762689892,0.9985014749553076,0.0,0.0,0.0,0.0,0.0,0.0,0.0,0.0,0.0,0.006523113419154519,0.0077438183030383466,0.2297897733189004,0.0,0.0,0.0,0.0,0.0,0.0,0.0,0.0,0.0,0.2638563694020968,0.001379346875150976,-9.833246468104823,0.0,0.0,0.0,0.0,0.0,0.0,0.0,0.0,0.0
1710444415.1231782,492,1710444415,123083353,map,0.003049716491223344,0.001265484664030359,0.05577992154879746,0.9984376285626951,0.0,0.0,0.0,0.0,0.0,0.0,0.0,0.0,0.0,-0.008880062803677414,0.007464434884990738,0.23164555982071183,0.0,0.0,0.0,0.0,0.0,0.0,0.0,0.0,0.0,0.2834090348180749,-0.022505874607898664,-9.816568809892042,0.0,0.0,0.0,0.0,0.0,0.0,0.0,0.0,0.0
1710444415.1375232,493,1710444415,137398005,map,0.002954054674269642,0.0012932949687403676,0.05695046954217071,0.9983717969614484,0.0,0.0,0.0,0.0,0.0,0.0,0.0,0.0,0.0,-0.01905693272522846,0.00732886909157943,0.23443782765096363,0.0,0.0,0.0,0.0,0.0,0.0,0.0,0.0,0.0,0.2901819833328192,-0.009532930109482784,-9.799637831950998,0.0,0.0,0.0,0.0,0.0,0.0,0.0,0.0,0.0
1710444415.1541193,494,1710444415,153986692,map,0.0028612763327422438,0.0013209457105191223,0.058133342667913625,0.998303852877686,0.0,0.0,0.0,0.0,0.0,0.0,0.0,0.0,0.0,-0.01848495809689107,0.007272434415288378,0.23692371754125702,0.0,0.0,0.0,0.0,0.0,0.0,0.0,0.0,0.0,0.31748001803855325,0.12881086993091334,-9.784897790262674,0.0,0.0,0.0,0.0,0.0,0.0,0.0,0.0,0.0
1710444415.1707065,495,1710444415,170563698,map,0.002801861889090246,0.001358537486032183,0.05933153839321809,0.9982334759452558,0.0,0.0,0.0,0.0,0.0,0.0,0.0,0.0,0.0,-0.01171261623949647,0.008886611987935004,0.2400143010237752,0.0,0.0,0.0,0.0,0.0,0.0,0.0,0.0,0.0,0.320125676154709,0.05356236688636177,-9.776832537149582,0.0,0.0,0.0,0.0,0.0,0.0,0.0,0.0,0.0
1710444415.186972,496,1710444415,186862946,map,0.0027954132609796117,0.0013966898590236875,0.06054584579107512,0.998160525907322,0.0,0.0,0.0,0.0,0.0,0.0,0.0,0.0,0.0,-0.0011339859133850734,0.008392428841751008,0.24327508263740338,0.0,0.0,0.0,0.0,0.0,0.0,0.0,0.0,0.0,0.29164047079518063,0.11002338783704417,-9.7687016257981,0.0,0.0,0.0,0.0,0.0,0.0,0.0,0.0,0.0
1710444415.2036963,497,1710444415,203437090,map,0.0028548837148381087,0.0014408232167928351,0.06177789068135382,0.9980847989476623,0.0,0.0,0.0,0.0,0.0,0.0,0.0,0.0,0.0,0.012093939352397406,0.008815200206797085,0.2468641741739633,0.0,0.0,0.0,0.0,0.0,0.0,0.0,0.0,0.0,0.37148367173325525,0.07899591207616821,-9.761967698242186,0.0,0.0,0.0,0.0,0.0,0.0,0.0,0.0,0.0
1710444415.2210436,498,1710444415,220930099,map,0.002982221753185355,0.0014901638378831206,0.06302824313926365,0.998006175497892,0.0,0.0,0.0,0.0,0.0,0.0,0.0,0.0,0.0,0.025701737400654324,0.009044676009584723,0.2505704220211387,0.0,0.0,0.0,0.0,0.0,0.0,0.0,0.0,0.0,0.3593178673645377,-0.0006992485973409578,-9.758780712543226,0.0,0.0,0.0,0.0,0.0,0.0,0.0,0.0,0.0
1710444415.2367828,499,1710444415,236667871,map,0.00317711789122458,0.0015455357962510495,0.06430625848303387,0.997923956201534,0.0,0.0,0.0,0.0,0.0,0.0,0.0,0.0,0.0,0.03925560968378354,0.009432573269513578,0.2561531516408223,0.0,0.0,0.0,0.0,0.0,0.0,0.0,0.0,0.0,0.3708772243328966,-0.08658069007507041,-9.760943243458769,0.0,0.0,0.0,0.0,0.0,0.0,0.0,0.0,0.0
1710444415.2530804,500,1710444415,252971172,map,0.0033940524630439034,0.0016141528395914925,0.06561609505993038,0.9978378640779146,0.0,0.0,0.0,0.0,0.0,0.0,0.0,0.0,0.0,0.04381368706061083,0.011821308117944405,0.26255165986796936,0.0,0.0,0.0,0.0,0.0,0.0,0.0,0.0,0.0,0.3982148293322359,-0.34969883357673837,-9.766322562394244,0.0,0.0,0.0,0.0,0.0,0.0,0.0,0.0,0.0
1710444415.2708094,501,1710444415,270599842,map,0.003601916125252099,0.0016839039702241552,0.06694433076147961,0.99774878964925,0.0,0.0,0.0,0.0,0.0,0.0,0.0,0.0,0.0,0.04201369986736941,0.01217854343744813,0.26625900195863356,0.0,0.0,0.0,0.0,0.0,0.0,0.0,0.0,0.0,0.4106637448362531,-0.36622235791074087,-9.768939113043347,0.0,0.0,0.0,0.0,0.0,0.0,0.0,0.0,0.0
1710444415.2872488,502,1710444415,287111282,map,0.0037795829790681955,0.001747053720797561,0.06829061155790091,0.99765678212943,0.0,0.0,0.0,0.0,0.0,0.0,0.0,0.0,0.0,0.0358965820363356,0.01127203603098977,0.26989428971855717,0.0,0.0,0.0,0.0,0.0,0.0,0.0,0.0,0.0,0.35409937982650624,-0.3965420867561862,-9.779014160176997,0.0,0.0,0.0,0.0,0.0,0.0,0.0,0.0,0.0
1710444415.3037271,503,1710444415,303497076,map,0.003905337514536038,0.0017968610432674533,0.06965943801646132,0.9975615681874075,0.0,0.0,0.0,0.0,0.0,0.0,0.0,0.0,0.0,0.02535316964538013,0.009323336321791003,0.2744294401973262,0.0,0.0,0.0,0.0,0.0,0.0,0.0,0.0,0.0,0.39209864510034126,-0.44903302527900385,-9.790842421974089,0.0,0.0,0.0,0.0,0.0,0.0,0.0,0.0,0.0
1710444415.3211777,504,1710444415,320953369,map,0.003958020621563628,0.0018338575078971052,0.0710539566872112,0.9974629347893044,0.0,0.0,0.0,0.0,0.0,0.0,0.0,0.0,0.0,0.010591372224727433,0.007786748140606914,0.2795875112421861,0.0,0.0,0.0,0.0,0.0,0.0,0.0,0.0,0.0,0.4469099373278145,-0.4628873792409372,-9.80093888952594,0.0,0.0,0.0,0.0,0.0,0.0,0.0,0.0,0.0
1710444415.337789,505,1710444415,337634563,map,0.003919069044024624,0.0018558529324487919,0.07246782477537497,0.9973613242351274,0.0,0.0,0.0,0.0,0.0,0.0,0.0,0.0,0.0,-0.007904744731351377,0.006086750931476498,0.2834688067425512,0.0,0.0,0.0,0.0,0.0,0.0,0.0,0.0,0.0,0.4306726527907371,-0.45191808785514676,-9.809084236376643,0.0,0.0,0.0,0.0,0.0,0.0,0.0,0.0,0.0
1710444415.3541636,506,1710444415,354037046,map,0.0037542284819954332,0.0018653823701237434,0.07390959813839679,0.9972561343106088,0.0,0.0,0.0,0.0,0.0,0.0,0.0,0.0,0.0,-0.03320355456531897,0.005411129371682639,0.2890507249068277,0.0,0.0,0.0,0.0,0.0,0.0,0.0,0.0,0.0,0.3470940190467099,-0.3915387019808648,-9.81514016113044,0.0,0.0,0.0,0.0,0.0,0.0,0.0,0.0,0.0
1710444415.372046,507,1710444415,371868610,map,0.0034177753188977746,0.0018219974940265084,0.07539594799919111,0.9971461528594013,0.0,0.0,0.0,0.0,0.0,0.0,0.0,0.0,0.0,-0.06821541794999217,-0.0026243315957699014,0.29798632535175784,0.0,0.0,0.0,0.0,0.0,0.0,0.0,0.0,0.0,0.33832419133555724,-0.12561299939987905,-9.813237934862139,0.0,0.0,0.0,0.0,0.0,0.0,0.0,0.0,0.0
1710444415.3875415,508,1710444415,387412548,map,0.0028967114683296517,0.0017711021064614509,0.07696961498987227,0.9970276579053906,0.0,0.0,0.0,0.0,0.0,0.0,0.0,0.0,0.0,-0.10517329195423569,-0.0013398348122472534,0.31546638926469833,0.0,0.0,0.0,0.0,0.0,0.0,0.0,0.0,0.0,0.16573306433634247,0.3546392085621137,-9.803982917216487,0.0,0.0,0.0,0.0,0.0,0.0,0.0,0.0,0.0
1710444415.4044087,509,1710444415,404299021,map,0.0022566654434994808,0.001743868159760567,0.07854880617722647,0.9969061898860143,0.0,0.0,0.0,0.0,0.0,0.0,0.0,0.0,0.0,-0.12854532891604334,0.0051766831774466004,0.31656191278307055,0.0,0.0,0.0,0.0,0.0,0.0,0.0,0.0,0.0,-0.35955344830898023,0.45277359491078806,-9.799381718255145,0.0,0.0,0.0,0.0,0.0,0.0,0.0,0.0,0.0
1710444415.420919,510,1710444415,420840263,map,0.0015533940852466186,0.0017138872938141142,0.08014077156774124,0.9967808717515034,0.0,0.0,0.0,0.0,0.0,0.0,0.0,0.0,0.0,-0.1411979213315068,0.00560750992587948,0.31914917114658486,0.0,0.0,0.0,0.0,0.0,0.0,0.0,0.0,0.0,0.04494886311712487,0.7885299044754122,-9.808907750757136,0.0,0.0,0.0,0.0,0.0,0.0,0.0,0.0,0.0
1710444415.437144,511,1710444415,436937571,map,0.0008328631923222145,0.0016683620276581083,0.08174589671811816,0.9966514592759087,0.0,0.0,0.0,0.0,0.0,0.0,0.0,0.0,0.0,-0.1448866418107044,0.002782931813532943,0.32183525387154366,0.0,0.0,0.0,0.0,0.0,0.0,0.0,0.0,0.0,0.2714379605317153,1.0362621777696805,-9.81310801536915,0.0,0.0,0.0,0.0,0.0,0.0,0.0,0.0,0.0
1710444415.4536977,512,1710444415,453570843,map,0.0001532025747621594,0.0016228422781630581,0.08336304739665404,0.9965179101454498,0.0,0.0,0.0,0.0,0.0,0.0,0.0,0.0,0.0,-0.13674215812922833,0.00213063020249105,0.3243130084446488,0.0,0.0,0.0,0.0,0.0,0.0,0.0,0.0,0.0,0.4127924934821975,1.3807791909950424,-9.815156924935986,0.0,0.0,0.0,0.0,0.0,0.0,0.0,0.0,0.0
1710444415.4707382,513,1710444415,470541716,map,-0.0004410073441065507,0.0015844889990950589,0.08499273452253073,0.9963802135658439,0.0,0.0,0.0,0.0,0.0,0.0,0.0,0.0,0.0,-0.11959604163816863,0.002162229272080434,0.3269080534442643,0.0,0.0,0.0,0.0,0.0,0.0,0.0,0.0,0.0,0.35976771797458307,1.6798924555308044,-9.818879421089916,0.0,0.0,0.0,0.0,0.0,0.0,0.0,0.0,0.0
1710444415.487211,514,1710444415,487089157,map,-0.0009123870741441443,0.0015552663474892286,0.08663538033637688,0.9962384551754598,0.0,0.0,0.0,0.0,0.0,0.0,0.0,0.0,0.0,-0.09496780196566733,0.0019329317854379087,0.3295987915257147,0.0,0.0,0.0,0.0,0.0,0.0,0.0,0.0,0.0,0.3346824728592242,1.9554731205765818,-9.820844045967752,0.0,0.0,0.0,0.0,0.0,0.0,0.0,0.0,0.0
1710444415.5045745,515,1710444415,504405499,map,-0.0012223124433778628,0.0015401078765164993,0.08829159238810705,0.9960927309912426,0.0,0.0,0.0,0.0,0.0,0.0,0.0,0.0,0.0,-0.06255972101915118,0.0019889382335603334,0.332423023293894,0.0,0.0,0.0,0.0,0.0,0.0,0.0,0.0,0.0,0.3522000821310056,2.167445271704617,-9.823024737672636,0.0,0.0,0.0,0.0,0.0,0.0,0.0,0.0,0.0
1710444415.5204284,516,1710444415,520307064,map,-0.0013543667374224613,0.0015476583420475762,0.08995782399090833,0.9959434523843297,0.0,0.0,0.0,0.0,0.0,0.0,0.0,0.0,0.0,-0.026729839116169794,0.0034299930306210336,0.3345420344143211,0.0,0.0,0.0,0.0,0.0,0.0,0.0,0.0,0.0,0.3441035642295314,2.284285096453,-9.82857448863117,0.0,0.0,0.0,0.0,0.0,0.0,0.0,0.0,0.0
1710444415.5371618,517,1710444415,537052155,map,-0.0013115928079109943,0.0015898417358740779,0.09164028965567851,0.9957900428500902,0.0,0.0,0.0,0.0,0.0,0.0,0.0,0.0,0.0,0.008704478403346504,0.007239352158353581,0.3379127225935882,0.0,0.0,0.0,0.0,0.0,0.0,0.0,0.0,0.0,0.2669767073324769,2.304695669990518,-9.831067173383733,0.0,0.0,0.0,0.0,0.0,0.0,0.0,0.0,0.0
1710444415.553606,518,1710444415,553514719,map,-0.0011274666160822247,0.0016639061177184434,0.09333599827950592,0.9956326389088644,0.0,0.0,0.0,0.0,0.0,0.0,0.0,0.0,0.0,0.03742843140400069,0.011044843741682145,0.3406749402289117,0.0,0.0,0.0,0.0,0.0,0.0,0.0,0.0,0.0,0.22586249197461913,2.154910136106967,-9.83418291290912,0.0,0.0,0.0,0.0,0.0,0.0,0.0,0.0,0.0
1710444415.5710533,519,1710444415,570936441,map,-0.0008476562982843815,0.001746512056224586,0.095052512572452,0.9954703667252488,0.0,0.0,0.0,0.0,0.0,0.0,0.0,0.0,0.0,0.05663299342232097,0.010990389359221886,0.3449415142725622,0.0,0.0,0.0,0.0,0.0,0.0,0.0,0.0,0.0,0.25146117956655084,2.0947753970198844,-9.832009206123212,0.0,0.0,0.0,0.0,0.0,0.0,0.0,0.0,0.0
1710444415.5860653,520,1710444415,585940599,map,-0.0005108602920806749,0.0018260744130278585,0.09677888053735231,0.995304100642581,0.0,0.0,0.0,0.0,0.0,0.0,0.0,0.0,0.0,0.06791932911538455,0.009320990252538503,0.34699859307347053,0.0,0.0,0.0,0.0,0.0,0.0,0.0,0.0,0.0,0.3147871971673825,1.9652455460955176,-9.829901157575698,0.0,0.0,0.0,0.0,0.0,0.0,0.0,0.0,0.0
1710444415.6031494,521,1710444415,602988720,map,-0.00015444682283600957,0.001889209879779907,0.09851362599035958,0.9951338967829609,0.0,0.0,0.0,0.0,0.0,0.0,0.0,0.0,0.0,0.071509256480285,0.005678759811235058,0.3487490673265206,0.0,0.0,0.0,0.0,0.0,0.0,0.0,0.0,0.0,0.367464312884789,1.7750631407571769,-9.832317939542033,0.0,0.0,0.0,0.0,0.0,0.0,0.0,0.0,0.0
1710444415.6198304,522,1710444415,619671583,map,0.00020321461690087723,0.0019280065940901758,0.10024161681788385,0.9949612353012198,0.0,0.0,0.0,0.0,0.0,0.0,0.0,0.0,0.0,0.07128906579749637,0.0008103920320519305,0.347454596789776,0.0,0.0,0.0,0.0,0.0,0.0,0.0,0.0,0.0,0.4031664966032921,1.6537175193991573,-9.832022710299903,0.0,0.0,0.0,0.0,0.0,0.0,0.0,0.0,0.0
1710444415.636633,523,1710444415,636506081,map,0.0005849935223416222,0.001984084760497159,0.10196182321806192,0.9947861618439867,0.0,0.0,0.0,0.0,0.0,0.0,0.0,0.0,0.0,0.07643270379450294,0.003774735831282212,0.3459613568244875,0.0,0.0,0.0,0.0,0.0,0.0,0.0,0.0,0.0,0.27096985454488304,1.443182573558473,-9.835375005748006,0.0,0.0,0.0,0.0,0.0,0.0,0.0,0.0,0.0
1710444415.6535215,524,1710444415,653390884,map,0.0009466037140668905,0.002078392772758878,0.10371298328120584,0.9946046457380958,0.0,0.0,0.0,0.0,0.0,0.0,0.0,0.0,0.0,0.07317381565270975,0.011794977573571244,0.35223585222507153,0.0,0.0,0.0,0.0,0.0,0.0,0.0,0.0,0.0,0.004371002225278771,1.1052035609116948,-9.849373249040884,0.0,0.0,0.0,0.0,0.0,0.0,0.0,0.0,0.0
1710444415.6699038,525,1710444415,669789791,map,0.0012255424209908295,0.002146431496926126,0.10547749446476057,0.9944186186104119,0.0,0.0,0.0,0.0,0.0,0.0,0.0,0.0,0.0,0.05618522626462319,0.008259529410279997,0.3549578378382513,0.0,0.0,0.0,0.0,0.0,0.0,0.0,0.0,0.0,0.25728097767910935,1.064873628263776,-9.84707241672958,0.0,0.0,0.0,0.0,0.0,0.0,0.0,0.0,0.0
1710444415.686383,526,1710444415,686226606,map,0.0013987570978087277,0.0022008693740889654,0.10725501907143428,0.9942281229861514,0.0,0.0,0.0,0.0,0.0,0.0,0.0,0.0,0.0,0.0348677936089385,0.007752577171390229,0.35759917318113227,0.0,0.0,0.0,0.0,0.0,0.0,0.0,0.0,0.0,0.4255841938850527,0.9273190367563899,-9.828371925980814,0.0,0.0,0.0,0.0,0.0,0.0,0.0,0.0,0.0
1710444415.7036865,527,1710444415,703422546,map,0.001493297585963796,0.002249658909692314,0.10904557014241091,0.9940330843233671,0.0,0.0,0.0,0.0,0.0,0.0,0.0,0.0,0.0,0.019097045369217695,0.008294769886976269,0.36025439122986147,0.0,0.0,0.0,0.0,0.0,0.0,0.0,0.0,0.0,0.3318988080235764,0.8086533105314534,-9.819103869819736,0.0,0.0,0.0,0.0,0.0,0.0,0.0,0.0,0.0
1710444415.7201066,528,1710444415,719878912,map,0.00155076032981589,0.0023054763066444744,0.11084737637236343,0.9938335570269112,0.0,0.0,0.0,0.0,0.0,0.0,0.0,0.0,0.0,0.011871199581528557,0.010493094601766085,0.3625712752065475,0.0,0.0,0.0,0.0,0.0,0.0,0.0,0.0,0.0,0.28570820093516425,0.6982715235912728,-9.81433456714166,0.0,0.0,0.0,0.0,0.0,0.0,0.0,0.0,0.0
1710444415.7364173,529,1710444415,736211538,map,0.0015935489833260404,0.0023628722733608164,0.11266685051288068,0.9936287325916888,0.0,0.0,0.0,0.0,0.0,0.0,0.0,0.0,0.0,0.008981601444925635,0.011135026483504756,0.3661933753103656,0.0,0.0,0.0,0.0,0.0,0.0,0.0,0.0,0.0,0.25802583197660983,0.5471362709853159,-9.809623006460468,0.0,0.0,0.0,0.0,0.0,0.0,0.0,0.0,0.0
1710444415.7537227,530,1710444415,753549576,map,0.001634270076787806,0.0024175738887690047,0.11450322841258063,0.9934185901123982,0.0,0.0,0.0,0.0,0.0,0.0,0.0,0.0,0.0,0.008504413927699492,0.010653352919968115,0.36967235542634663,0.0,0.0,0.0,0.0,0.0,0.0,0.0,0.0,0.0,0.3911768104182395,0.536470257414637,-9.799839928940091,0.0,0.0,0.0,0.0,0.0,0.0,0.0,0.0,0.0
1710444415.7702785,531,1710444415,770186901,map,0.0016973727475784058,0.002480560132064527,0.11635430114340255,0.9932032230881138,0.0,0.0,0.0,0.0,0.0,0.0,0.0,0.0,0.0,0.01313329843189657,0.01180290848130192,0.3727194223122804,0.0,0.0,0.0,0.0,0.0,0.0,0.0,0.0,0.0,0.43545536869603785,0.517935813105687,-9.789173491999648,0.0,0.0,0.0,0.0,0.0,0.0,0.0,0.0,0.0
1710444415.7863202,532,1710444415,786163330,map,0.0017997363732075665,0.002552619023698011,0.11822414975119122,0.992982021740935,0.0,0.0,0.0,0.0,0.0,0.0,0.0,0.0,0.0,0.021133980001608738,0.012716059678325746,0.3766006818007264,0.0,0.0,0.0,0.0,0.0,0.0,0.0,0.0,0.0,0.40411609633833084,0.4479570276142951,-9.783949238265482,0.0,0.0,0.0,0.0,0.0,0.0,0.0,0.0,0.0
1710444415.8031812,533,1710444415,802996635,map,0.0019504949611875144,0.0026305609134678097,0.12011792610132424,0.9927542291764885,0.0,0.0,0.0,0.0,0.0,0.0,0.0,0.0,0.0,0.03087390501757057,0.01277119108248606,0.38153046635504884,0.0,0.0,0.0,0.0,0.0,0.0,0.0,0.0,0.0,0.45253051245440157,0.3598055456764225,-9.78141976627297,0.0,0.0,0.0,0.0,0.0,0.0,0.0,0.0,0.0
1710444415.819943,534,1710444415,819721460,map,0.002155106625127912,0.0027174562211345924,0.12203750639670241,0.9925194295224631,0.0,0.0,0.0,0.0,0.0,0.0,0.0,0.0,0.0,0.04176940735832479,0.013290805190717325,0.3868462464768459,0.0,0.0,0.0,0.0,0.0,0.0,0.0,0.0,0.0,0.5259597133156421,0.2564501070147795,-9.778499604478963,0.0,0.0,0.0,0.0,0.0,0.0,0.0,0.0,0.0
1710444415.8368,535,1710444415,836580515,map,0.002421748022153933,0.002820949686149936,0.1239887244019801,0.9922766618239871,0.0,0.0,0.0,0.0,0.0,0.0,0.0,0.0,0.0,0.05446991573302052,0.015115920823452752,0.3933461710637567,0.0,0.0,0.0,0.0,0.0,0.0,0.0,0.0,0.0,0.515386204901434,0.1324739942735306,-9.781098459999988,0.0,0.0,0.0,0.0,0.0,0.0,0.0,0.0,0.0
1710444415.8534586,536,1710444415,853275776,map,0.0027733298320770923,0.0029467451358055376,0.125964740810729,0.9920264660820461,0.0,0.0,0.0,0.0,0.0,0.0,0.0,0.0,0.0,0.07186436324747679,0.017487803166639473,0.39848672044132705,0.0,0.0,0.0,0.0,0.0,0.0,0.0,0.0,0.0,0.5157201858919771,-0.07869556056012066,-9.789070115198776,0.0,0.0,0.0,0.0,0.0,0.0,0.0,0.0,0.0
1710444415.8703034,537,1710444415,870169640,map,0.0031643212880189246,0.00309688165704041,0.12796539488235073,0.9917687503180329,0.0,0.0,0.0,0.0,0.0,0.0,0.0,0.0,0.0,0.08027808074052922,0.021361267305324887,0.40357186690038865,0.0,0.0,0.0,0.0,0.0,0.0,0.0,0.0,0.0,0.4046419588739612,-0.5021758895730876,-9.802233893504432,0.0,0.0,0.0,0.0,0.0,0.0,0.0,0.0,0.0
1710444415.8864992,538,1710444415,886360168,map,0.0035609010142791334,0.0032595098675402916,0.13000170586957618,0.9915020181776688,0.0,0.0,0.0,0.0,0.0,0.0,0.0,0.0,0.0,0.08168422051230266,0.02372999504656064,0.4108697622124807,0.0,0.0,0.0,0.0,0.0,0.0,0.0,0.0,0.0,0.37228916749661084,-0.499769905127338,-9.807131718691702,0.0,0.0,0.0,0.0,0.0,0.0,0.0,0.0,0.0
1710444415.9031153,539,1710444415,902992010,map,0.003933020299871125,0.0034167092194171567,0.13207712501045168,0.9912257515311053,0.0,0.0,0.0,0.0,0.0,0.0,0.0,0.0,0.0,0.07667376226759338,0.02331626896051763,0.41886151255717136,0.0,0.0,0.0,0.0,0.0,0.0,0.0,0.0,0.0,0.4817019351718028,-0.6482638983880553,-9.812600910251358,0.0,0.0,0.0,0.0,0.0,0.0,0.0,0.0,0.0
1710444415.9200857,540,1710444415,919847727,map,0.004252534688024628,0.003557545873268512,0.13419176184082401,0.9909398724797294,0.0,0.0,0.0,0.0,0.0,0.0,0.0,0.0,0.0,0.06579659901672855,0.021479292931655798,0.4268689511398009,0.0,0.0,0.0,0.0,0.0,0.0,0.0,0.0,0.0,0.5778642387864402,-0.7783624963401935,-9.817636105511857,0.0,0.0,0.0,0.0,0.0,0.0,0.0,0.0,0.0
1710444415.9363208,541,1710444415,936143398,map,0.004502602015978212,0.0036815789834559135,0.13633753645218374,0.9906453697996189,0.0,0.0,0.0,0.0,0.0,0.0,0.0,0.0,0.0,0.05156968147808949,0.020016770750864953,0.43323831894158427,0.0,0.0,0.0,0.0,0.0,0.0,0.0,0.0,0.0,0.6238384152499408,-0.9095425634769064,-9.82049759398645,0.0,0.0,0.0,0.0,0.0,0.0,0.0,0.0,0.0
1710444415.9534352,542,1710444415,953314066,map,0.004647981446937795,0.003763243381067435,0.13853207443618262,0.9903398904518246,0.0,0.0,0.0,0.0,0.0,0.0,0.0,0.0,0.0,0.02965787564827168,0.01448286434232247,0.44316316462595035,0.0,0.0,0.0,0.0,0.0,0.0,0.0,0.0,0.0,0.6821039172589781,-0.9586943905861919,-9.820492937373798,0.0,0.0,0.0,0.0,0.0,0.0,0.0,0.0,0.0
1710444415.9706903,543,1710444415,970434904,map,0.00458012525953438,0.0037878745157426427,0.14076768005880153,0.990024815199156,0.0,0.0,0.0,0.0,0.0,0.0,0.0,0.0,0.0,-0.014167876965845412,0.009042084430764773,0.45145854778923533,0.0,0.0,0.0,0.0,0.0,0.0,0.0,0.0,0.0,0.6619119280297232,-0.907923983126764,-9.809354319910453,0.0,0.0,0.0,0.0,0.0,0.0,0.0,0.0,0.0
1710444415.986598,544,1710444415,986418962,map,0.004213478728805114,0.0037370496873737444,0.14299845266294053,0.9897068877160756,0.0,0.0,0.0,0.0,0.0,0.0,0.0,0.0,0.0,-0.07543301713996395,0.002373247293385771,0.45042493241958653,0.0,0.0,0.0,0.0,0.0,0.0,0.0,0.0,0.0,0.542350917090758,-0.8247760605871872,-9.78193665027733,0.0,0.0,0.0,0.0,0.0,0.0,0.0,0.0,0.0
1710444416.002927,545,1710444416,2794027,map,0.0036227111358655183,0.0036587344645073764,0.1452425444095017,0.9893826827469735,0.0,0.0,0.0,0.0,0.0,0.0,0.0,0.0,0.0,-0.12058888165931889,0.00325416431641482,0.45309765584593276,0.0,0.0,0.0,0.0,0.0,0.0,0.0,0.0,0.0,0.6018504287285061,-0.13586202922373686,-9.755046109196403,0.0,0.0,0.0,0.0,0.0,0.0,0.0,0.0,0.0
1710444416.0195878,546,1710444416,19446373,map,0.002884697357016069,0.0035658201663392184,0.1475008971234861,0.9890512872422069,0.0,0.0,0.0,0.0,0.0,0.0,0.0,0.0,0.0,-0.15015793308637423,0.0045890386607821245,0.4560328088632157,0.0,0.0,0.0,0.0,0.0,0.0,0.0,0.0,0.0,0.3964493183010116,0.2170085687493561,-9.750684725786632,0.0,0.0,0.0,0.0,0.0,0.0,0.0,0.0,0.0
1710444416.0370622,547,1710444416,36928654,map,0.002030633817534615,0.003444886560431554,0.14977367395818716,0.9887122209581267,0.0,0.0,0.0,0.0,0.0,0.0,0.0,0.0,0.0,-0.1739413841735926,0.0024269580493679736,0.459044458407253,0.0,0.0,0.0,0.0,0.0,0.0,0.0,0.0,0.0,0.39816296630882536,0.2745704129309477,-9.745751044681944,0.0,0.0,0.0,0.0,0.0,0.0,0.0,0.0,0.0
