Time,header.seq,header.stamp.secs,header.stamp.nsecs,header.frame_id,orientation.x,orientation.y,orientation.z,orientation.w,orientation_covariance_0,orientation_covariance_1,orientation_covariance_2,orientation_covariance_3,orientation_covariance_4,orientation_covariance_5,orientation_covariance_6,orientation_covariance_7,orientation_covariance_8,angular_velocity.x,angular_velocity.y,angular_velocity.z,angular_velocity_covariance_0,angular_velocity_covariance_1,angular_velocity_covariance_2,angular_velocity_covariance_3,angular_velocity_covariance_4,angular_velocity_covariance_5,angular_velocity_covariance_6,angular_velocity_covariance_7,angular_velocity_covariance_8,linear_acceleration.x,linear_acceleration.y,linear_acceleration.z,linear_acceleration_covariance_0,linear_acceleration_covariance_1,linear_acceleration_covariance_2,linear_acceleration_covariance_3,linear_acceleration_covariance_4,linear_acceleration_covariance_5,linear_acceleration_covariance_6,linear_acceleration_covariance_7,linear_acceleration_covariance_8
1710446120.8501244,270,1710446120,850015402,map,0.0004086122062682996,6.0238087248861995e-06,1.59757293936501e-08,0.9999999164998857,0.0,0.0,0.0,0.0,0.0,0.0,0.0,0.0,0.0,-0.0,0.0,-0.0,0.0,0.0,0.0,0.0,0.0,0.0,0.0,0.0,0.0,1.7053542656261277e-05,-0.0067508359711103754,-9.810878894892685,0.0,0.0,0.0,0.0,0.0,0.0,0.0,0.0,0.0
1710446120.8658702,271,1710446120,865738630,map,0.0004086122062682996,6.0238087248861995e-06,1.59757293936501e-08,0.9999999164998857,0.0,0.0,0.0,0.0,0.0,0.0,0.0,0.0,0.0,-0.0,0.0,-0.0,0.0,0.0,0.0,0.0,0.0,0.0,0.0,0.0,0.0,1.7082798363838208e-05,-0.006750494001118751,-9.810487739429925,0.0,0.0,0.0,0.0,0.0,0.0,0.0,0.0,0.0
1710446120.8829257,272,1710446120,882797956,map,0.0004086122062682996,6.0238087248861995e-06,1.59757293936501e-08,0.9999999164998857,0.0,0.0,0.0,0.0,0.0,0.0,0.0,0.0,0.0,-0.0,0.0,-0.0,0.0,0.0,0.0,0.0,0.0,0.0,0.0,0.0,0.0,1.798825536350828e-05,-0.0067504160119517785,-9.810476097898295,0.0,0.0,0.0,0.0,0.0,0.0,0.0,0.0,0.0
1710446120.8998413,273,1710446120,899732113,map,0.0004086122062682996,6.0238087248861995e-06,1.59757293936501e-08,0.9999999164998857,0.0,0.0,0.0,0.0,0.0,0.0,0.0,0.0,0.0,-0.0,0.0,-0.0,0.0,0.0,0.0,0.0,0.0,0.0,0.0,0.0,0.0,1.711017468596832e-05,-0.006750347799852385,-9.810476097898295,0.0,0.0,0.0,0.0,0.0,0.0,0.0,0.0,0.0
1710446120.916556,274,1710446120,916409492,map,0.0004086122062682996,6.0238087248861995e-06,1.59757293936501e-08,0.9999999164998857,0.0,0.0,0.0,0.0,0.0,0.0,0.0,0.0,0.0,-0.0,0.0,-0.0,0.0,0.0,0.0,0.0,0.0,0.0,0.0,0.0,0.0,1.7166319993924483e-05,-0.006750278678258333,-9.810476097898295,0.0,0.0,0.0,0.0,0.0,0.0,0.0,0.0,0.0
1710446120.9328575,275,1710446120,932599068,map,0.0004086122062682996,6.0238087248861995e-06,1.59757293936501e-08,0.9999999164998857,0.0,0.0,0.0,0.0,0.0,0.0,0.0,0.0,0.0,-0.0,0.0,-0.0,0.0,0.0,0.0,0.0,0.0,0.0,0.0,0.0,0.0,1.7132648263454556e-05,-0.006750210466158941,-9.810476097898295,0.0,0.0,0.0,0.0,0.0,0.0,0.0,0.0,0.0
1710446120.949449,276,1710446120,949352741,map,0.0004086122062682996,6.0238087248861995e-06,1.59757293936501e-08,0.9999999164998857,0.0,0.0,0.0,0.0,0.0,0.0,0.0,0.0,0.0,-0.0,0.0,-0.0,0.0,0.0,0.0,0.0,0.0,0.0,0.0,0.0,0.0,1.714789384530458e-05,-0.0067501399803229015,-9.810476097898295,0.0,0.0,0.0,0.0,0.0,0.0,0.0,0.0,0.0
1710446120.9657738,277,1710446120,965584278,map,0.0004086122062682996,6.0238087248861995e-06,1.59757293936501e-08,0.9999999164998857,0.0,0.0,0.0,0.0,0.0,0.0,0.0,0.0,0.0,-0.0,0.0,-0.0,0.0,0.0,0.0,0.0,0.0,0.0,0.0,0.0,0.0,1.8057463110862542e-05,-0.006749744577520086,-9.810002054730333,0.0,0.0,0.0,0.0,0.0,0.0,0.0,0.0,0.0
1710446120.9824975,278,1710446120,982357025,map,0.0004086122062682996,6.0238087248861995e-06,1.59757293936501e-08,0.9999999164998857,0.0,0.0,0.0,0.0,0.0,0.0,0.0,0.0,0.0,-0.0,0.0,-0.0,0.0,0.0,0.0,0.0,0.0,0.0,0.0,0.0,0.0,1.8955292434626523e-05,-0.006750326654101573,-9.810945484453608,0.0,0.0,0.0,0.0,0.0,0.0,0.0,0.0,0.0
1710446120.9989197,279,1710446120,998720407,map,0.0004086122062682996,6.0238087248861995e-06,1.59757293936501e-08,0.9999999164998857,0.0,0.0,0.0,0.0,0.0,0.0,0.0,0.0,0.0,-0.0,0.0,-0.0,0.0,0.0,0.0,0.0,0.0,0.0,0.0,0.0,0.0,1.7168943672851662e-05,-0.006749944666344972,-9.810489602074986,0.0,0.0,0.0,0.0,0.0,0.0,0.0,0.0,0.0
1710446121.0174148,280,1710446121,17329454,map,0.0004086122062682996,6.0238087248861995e-06,1.59757293936501e-08,0.9999999164998857,0.0,0.0,0.0,0.0,0.0,0.0,0.0,0.0,0.0,-0.0,0.0,-0.0,0.0,0.0,0.0,0.0,0.0,0.0,0.0,0.0,0.0,1.72652683942498e-05,-0.006749875317377256,-9.810476097898295,0.0,0.0,0.0,0.0,0.0,0.0,0.0,0.0,0.0
1710446121.032867,281,1710446121,32739639,map,0.0004086122062682996,6.0238087248861995e-06,1.59757293936501e-08,0.9999999164998857,0.0,0.0,0.0,0.0,0.0,0.0,0.0,0.0,0.0,-0.0,0.0,-0.0,0.0,0.0,0.0,0.0,0.0,0.0,0.0,0.0,0.0,1.7168010197376894e-05,-0.0067498159728507845,-9.810476097898295,0.0,0.0,0.0,0.0,0.0,0.0,0.0,0.0,0.0
1710446121.049137,282,1710446121,49016714,map,0.0004086122062682996,6.0238087248861995e-06,1.59757293936501e-08,0.9999999164998857,0.0,0.0,0.0,0.0,0.0,0.0,0.0,0.0,0.0,-0.0,0.0,-0.0,0.0,0.0,0.0,0.0,0.0,0.0,0.0,0.0,0.0,1.7243092356520032e-05,-0.006749756855697977,-9.810476097898295,0.0,0.0,0.0,0.0,0.0,0.0,0.0,0.0,0.0
1710446121.0664039,283,1710446121,66209316,map,0.0004086122062682996,6.0238087248861995e-06,1.59757293936501e-08,0.9999999164998857,0.0,0.0,0.0,0.0,0.0,0.0,0.0,0.0,0.0,-0.0,0.0,-0.0,0.0,0.0,0.0,0.0,0.0,0.0,0.0,0.0,0.0,1.721942773182955e-05,-0.00674969728379784,-9.810476097898295,0.0,0.0,0.0,0.0,0.0,0.0,0.0,0.0,0.0
1710446121.0830348,284,1710446121,82825422,map,0.0004086122062682996,6.0238087248861995e-06,1.59757293936501e-08,0.9999999164998857,0.0,0.0,0.0,0.0,0.0,0.0,0.0,0.0,0.0,-0.0,0.0,-0.0,0.0,0.0,0.0,0.0,0.0,0.0,0.0,0.0,0.0,1.8133065742534904e-05,-0.006742235789618897,-9.810476097898295,0.0,0.0,0.0,0.0,0.0,0.0,0.0,0.0,0.0
1710446121.0993092,285,1710446121,99088430,map,0.0004086122062682996,6.0238087248861995e-06,1.59757293936501e-08,0.9999999164998857,0.0,0.0,0.0,0.0,0.0,0.0,0.0,0.0,0.0,-0.0,0.0,-0.0,0.0,0.0,0.0,0.0,0.0,0.0,0.0,0.0,0.0,1.7247389363510444e-05,-0.006756605350477041,-9.810001589069067,0.0,0.0,0.0,0.0,0.0,0.0,0.0,0.0,0.0
1710446121.116263,286,1710446121,116132736,map,0.0004086122062682996,6.0238087248861995e-06,1.59757293936501e-08,0.9999999164998857,0.0,0.0,0.0,0.0,0.0,0.0,0.0,0.0,0.0,-0.0,0.0,-0.0,0.0,0.0,0.0,0.0,0.0,0.0,0.0,0.0,0.0,1.731066940837318e-05,-0.006742655521403829,-9.810945950114872,0.0,0.0,0.0,0.0,0.0,0.0,0.0,0.0,0.0
1710446121.1322954,287,1710446121,132190466,map,0.0004086122062682996,6.0238087248861995e-06,1.59757293936501e-08,0.9999999164998857,0.0,0.0,0.0,0.0,0.0,0.0,0.0,0.0,0.0,-0.0,0.0,-0.0,0.0,0.0,0.0,0.0,0.0,0.0,0.0,0.0,0.0,1.7271368403346567e-05,-0.006749430347115549,-9.810489602074986,0.0,0.0,0.0,0.0,0.0,0.0,0.0,0.0,0.0
1710446121.1488783,288,1710446121,148755789,map,0.0004086122062682996,6.0238087248861995e-06,1.59757293936501e-08,0.9999999164998857,0.0,0.0,0.0,0.0,0.0,0.0,0.0,0.0,0.0,-0.0,0.0,-0.0,0.0,0.0,0.0,0.0,0.0,0.0,0.0,0.0,0.0,1.7302286780846203e-05,-0.00674957291040328,-9.810476097898295,0.0,0.0,0.0,0.0,0.0,0.0,0.0,0.0,0.0
1710446121.1660569,289,1710446121,165880680,map,0.0004086122062682996,6.0238087248861995e-06,1.59757293936501e-08,0.9999999164998857,0.0,0.0,0.0,0.0,0.0,0.0,0.0,0.0,0.0,-0.0,0.0,-0.0,0.0,0.0,0.0,0.0,0.0,0.0,0.0,0.0,0.0,1.771857687456535e-05,-0.006742117555313282,-9.810476097898295,0.0,0.0,0.0,0.0,0.0,0.0,0.0,0.0,0.0
1710446121.1823695,290,1710446121,182211876,map,0.0004086122062682996,6.0238087248861995e-06,1.59757293936501e-08,0.9999999164998857,0.0,0.0,0.0,0.0,0.0,0.0,0.0,0.0,0.0,-0.0,0.0,-0.0,0.0,0.0,0.0,0.0,0.0,0.0,0.0,0.0,0.0,1.7874362473802914e-05,-0.006756814534248513,-9.810475632237031,0.0,0.0,0.0,0.0,0.0,0.0,0.0,0.0,0.0
1710446121.1994326,291,1710446121,199196815,map,0.0004086122062682996,6.0238087248861995e-06,1.59757293936501e-08,0.9999999164998857,0.0,0.0,0.0,0.0,0.0,0.0,0.0,0.0,0.0,-0.0,0.0,-0.0,0.0,0.0,0.0,0.0,0.0,0.0,0.0,0.0,0.0,1.8981471492303747e-05,-0.006742213961747091,-9.810476097898295,0.0,0.0,0.0,0.0,0.0,0.0,0.0,0.0,0.0
1710446121.2158859,292,1710446121,215755463,map,0.0004086122062682996,6.0238087248861995e-06,1.59757293936501e-08,0.9999999164998857,0.0,0.0,0.0,0.0,0.0,0.0,0.0,0.0,0.0,-0.0,0.0,-0.0,0.0,0.0,0.0,0.0,0.0,0.0,0.0,0.0,0.0,1.7357864542819137e-05,-0.006741902459826529,-9.810476097898295,0.0,0.0,0.0,0.0,0.0,0.0,0.0,0.0,0.0
1710446121.2327135,293,1710446121,232574224,map,0.0004086122062682996,6.0238087248861995e-06,1.59757293936501e-08,0.9999999164998857,0.0,0.0,0.0,0.0,0.0,0.0,0.0,0.0,0.0,-0.0,0.0,-0.0,0.0,0.0,0.0,0.0,0.0,0.0,0.0,0.0,0.0,1.7434536541258023e-05,-0.0067564905267763955,-9.810001589069067,0.0,0.0,0.0,0.0,0.0,0.0,0.0,0.0,0.0
1710446121.2490213,294,1710446121,248939276,map,0.0004086122062682996,6.0238087248861995e-06,1.59757293936501e-08,0.9999999164998857,0.0,0.0,0.0,0.0,0.0,0.0,0.0,0.0,0.0,-0.0,0.0,-0.0,0.0,0.0,0.0,0.0,0.0,0.0,0.0,0.0,0.0,1.728142702347191e-05,-0.006742548883155111,-9.810945484453608,0.0,0.0,0.0,0.0,0.0,0.0,0.0,0.0,0.0
1710446121.2954934,295,1710446121,295224667,map,0.0004086122062682996,6.0238087248861995e-06,1.59757293936501e-08,0.9999999164998857,0.0,0.0,0.0,0.0,0.0,0.0,0.0,0.0,0.0,-0.0,0.0,-0.0,0.0,0.0,0.0,0.0,0.0,0.0,0.0,0.0,0.0,1.7373463619663413e-05,-0.0067419265614349815,-9.810489602074986,0.0,0.0,0.0,0.0,0.0,0.0,0.0,0.0,0.0
1710446121.3072164,296,1710446121,307038546,map,0.0004086122062682996,6.0238087248861995e-06,1.59757293936501e-08,0.9999999164998857,0.0,0.0,0.0,0.0,0.0,0.0,0.0,0.0,0.0,-0.0,0.0,-0.0,0.0,0.0,0.0,0.0,0.0,0.0,0.0,0.0,0.0,1.7391018465294974e-05,-0.006749426709136914,-9.810476097898295,0.0,0.0,0.0,0.0,0.0,0.0,0.0,0.0,0.0
1710446121.3171377,297,1710446121,316883564,map,0.0004086122062682996,6.0238087248861995e-06,1.59757293936501e-08,0.9999999164998857,0.0,0.0,0.0,0.0,0.0,0.0,0.0,0.0,0.0,-0.0,0.0,-0.0,0.0,0.0,0.0,0.0,0.0,0.0,0.0,0.0,0.0,1.7377396473519044e-05,-0.006749592237164775,-9.810476097898295,0.0,0.0,0.0,0.0,0.0,0.0,0.0,0.0,0.0
1710446121.3292203,298,1710446121,328835964,map,0.0004086122062682996,6.0238087248861995e-06,1.59757293936501e-08,0.9999999164998857,0.0,0.0,0.0,0.0,0.0,0.0,0.0,0.0,0.0,-0.0,0.0,-0.0,0.0,0.0,0.0,0.0,0.0,0.0,0.0,0.0,0.0,1.7807158456868324e-05,-0.006742143930658381,-9.810476097898295,0.0,0.0,0.0,0.0,0.0,0.0,0.0,0.0,0.0
1710446121.3386364,299,1710446121,338522196,map,0.0004086122062682996,6.0238087248861995e-06,1.59757293936501e-08,0.9999999164998857,0.0,0.0,0.0,0.0,0.0,0.0,0.0,0.0,0.0,-0.0,0.0,-0.0,0.0,0.0,0.0,0.0,0.0,0.0,0.0,0.0,0.0,1.7960180044995064e-05,-0.006742042067256621,-9.810476097898295,0.0,0.0,0.0,0.0,0.0,0.0,0.0,0.0,0.0
1710446121.3495367,300,1710446121,349418402,map,0.0004086122062682996,6.0238087248861995e-06,1.59757293936501e-08,0.9999999164998857,0.0,0.0,0.0,0.0,0.0,0.0,0.0,0.0,0.0,-0.0,0.0,-0.0,0.0,0.0,0.0,0.0,0.0,0.0,0.0,0.0,0.0,1.739978389770266e-05,-0.0067495567668730905,-9.810476097898295,0.0,0.0,0.0,0.0,0.0,0.0,0.0,0.0,0.0
1710446121.366309,301,1710446121,366203785,map,0.0004086122062682996,6.0238087248861995e-06,1.59757293936501e-08,0.9999999164998857,0.0,0.0,0.0,0.0,0.0,0.0,0.0,0.0,0.0,-0.0,0.0,-0.0,0.0,0.0,0.0,0.0,0.0,0.0,0.0,0.0,0.0,1.740665751016624e-05,-0.006749673182189388,-9.810410439659904,0.0,0.0,0.0,0.0,0.0,0.0,0.0,0.0,0.0
1710446121.3832502,302,1710446121,382958174,map,0.0004086122062682996,6.0238087248861995e-06,1.59757293936501e-08,0.9999999164998857,0.0,0.0,0.0,0.0,0.0,0.0,0.0,0.0,0.0,-0.0,0.0,-0.0,0.0,0.0,0.0,0.0,0.0,0.0,0.0,0.0,0.0,1.746452410781803e-05,-0.006742027060594754,-9.810135699513442,0.0,0.0,0.0,0.0,0.0,0.0,0.0,0.0,0.0
1710446121.399368,303,1710446121,399187803,map,0.0004086122062682996,6.0238087248861995e-06,1.59757293936501e-08,0.9999999164998857,0.0,0.0,0.0,0.0,0.0,0.0,0.0,0.0,0.0,-0.0,0.0,-0.0,0.0,0.0,0.0,0.0,0.0,0.0,0.0,0.0,0.0,1.746591321880046e-05,-0.006742437015312106,-9.810879360553951,0.0,0.0,0.0,0.0,0.0,0.0,0.0,0.0,0.0
1710446121.4161897,304,1710446121,416086197,map,0.0004086122062682996,6.0238087248861995e-06,1.59757293936501e-08,0.9999999164998857,0.0,0.0,0.0,0.0,0.0,0.0,0.0,0.0,0.0,-0.0,0.0,-0.0,0.0,0.0,0.0,0.0,0.0,0.0,0.0,0.0,0.0,1.7483206939989032e-05,-0.006742279217988844,-9.810487739429925,0.0,0.0,0.0,0.0,0.0,0.0,0.0,0.0,0.0
1710446121.4326537,305,1710446121,432502985,map,0.0004086122062682996,6.0238087248861995e-06,1.59757293936501e-08,0.9999999164998857,0.0,0.0,0.0,0.0,0.0,0.0,0.0,0.0,0.0,-0.0,0.0,-0.0,0.0,0.0,0.0,0.0,0.0,0.0,0.0,0.0,0.0,1.7505483341875458e-05,-0.006742391085831849,-9.810476097898295,0.0,0.0,0.0,0.0,0.0,0.0,0.0,0.0,0.0
1710446121.4486997,306,1710446121,448588133,map,0.0004086122062682996,6.0238087248861995e-06,1.59757293936501e-08,0.9999999164998857,0.0,0.0,0.0,0.0,0.0,0.0,0.0,0.0,0.0,-0.0,0.0,-0.0,0.0,0.0,0.0,0.0,0.0,0.0,0.0,0.0,0.0,1.840624010157173e-05,-0.006757307025606131,-9.810475632237031,0.0,0.0,0.0,0.0,0.0,0.0,0.0,0.0,0.0
1710446121.4666789,307,1710446121,466487169,map,0.0004086122062682996,6.0238087248861995e-06,1.59757293936501e-08,0.9999999164998857,0.0,0.0,0.0,0.0,0.0,0.0,0.0,0.0,0.0,-0.0,0.0,-0.0,0.0,0.0,0.0,0.0,0.0,0.0,0.0,0.0,0.0,1.9238467682194154e-05,-0.0067427069078520386,-9.810476097898295,0.0,0.0,0.0,0.0,0.0,0.0,0.0,0.0,0.0
1710446121.4831357,308,1710446121,483030081,map,0.0004086122062682996,6.0238087248861995e-06,1.59757293936501e-08,0.9999999164998857,0.0,0.0,0.0,0.0,0.0,0.0,0.0,0.0,0.0,-0.0,0.0,-0.0,0.0,0.0,0.0,0.0,0.0,0.0,0.0,0.0,0.0,1.7530492668629495e-05,-0.006742390858458184,-9.810476097898295,0.0,0.0,0.0,0.0,0.0,0.0,0.0,0.0,0.0
1710446121.5000653,309,1710446121,499878645,map,0.0004086122062682996,6.0238087248861995e-06,1.59757293936501e-08,0.9999999164998857,0.0,0.0,0.0,0.0,0.0,0.0,0.0,0.0,0.0,-0.0,0.0,-0.0,0.0,0.0,0.0,0.0,0.0,0.0,0.0,0.0,0.0,1.755351958124492e-05,-0.006742451567226644,-9.810410439659904,0.0,0.0,0.0,0.0,0.0,0.0,0.0,0.0,0.0
1710446121.5165496,310,1710446121,516367197,map,0.0004086122062682996,6.0238087248861995e-06,1.59757293936501e-08,0.9999999164998857,0.0,0.0,0.0,0.0,0.0,0.0,0.0,0.0,0.0,-0.0,0.0,-0.0,0.0,0.0,0.0,0.0,0.0,0.0,0.0,0.0,0.0,1.747703676480044e-05,-0.006742378352906629,-9.810135699513442,0.0,0.0,0.0,0.0,0.0,0.0,0.0,0.0,0.0
1710446121.533906,311,1710446121,533761263,map,0.0004086122062682996,6.0238087248861995e-06,1.59757293936501e-08,0.9999999164998857,0.0,0.0,0.0,0.0,0.0,0.0,0.0,0.0,0.0,-0.0,0.0,-0.0,0.0,0.0,0.0,0.0,0.0,0.0,0.0,0.0,0.0,1.7524302065338224e-05,-0.006743005904221045,-9.810878894892685,0.0,0.0,0.0,0.0,0.0,0.0,0.0,0.0,0.0
1710446121.5491145,312,1710446121,548974991,map,0.0004086122062682996,6.0238087248861995e-06,1.59757293936501e-08,0.9999999164998857,0.0,0.0,0.0,0.0,0.0,0.0,0.0,0.0,0.0,-0.0,0.0,-0.0,0.0,0.0,0.0,0.0,0.0,0.0,0.0,0.0,0.0,1.755134532057677e-05,-0.006742847197403124,-9.810487739429925,0.0,0.0,0.0,0.0,0.0,0.0,0.0,0.0,0.0
1710446121.5665143,313,1710446121,566311598,map,0.0004086122062682996,6.0238087248861995e-06,1.59757293936501e-08,0.9999999164998857,0.0,0.0,0.0,0.0,0.0,0.0,0.0,0.0,0.0,-0.0,0.0,-0.0,0.0,0.0,0.0,0.0,0.0,0.0,0.0,0.0,0.0,1.754929362852471e-05,-0.006757749267383863,-9.810475632237031,0.0,0.0,0.0,0.0,0.0,0.0,0.0,0.0,0.0
1710446121.5831985,314,1710446121,583017349,map,0.0004086122062682996,6.0238087248861995e-06,1.59757293936501e-08,0.9999999164998857,0.0,0.0,0.0,0.0,0.0,0.0,0.0,0.0,0.0,-0.0,0.0,-0.0,0.0,0.0,0.0,0.0,0.0,0.0,0.0,0.0,0.0,1.7565144948028202e-05,-0.006750546069687955,-9.810476097898295,0.0,0.0,0.0,0.0,0.0,0.0,0.0,0.0,0.0
1710446121.5995965,315,1710446121,599452257,map,0.0004086122062682996,6.0238087248861995e-06,1.59757293936501e-08,0.9999999164998857,0.0,0.0,0.0,0.0,0.0,0.0,0.0,0.0,0.0,-0.0,0.0,-0.0,0.0,0.0,0.0,0.0,0.0,0.0,0.0,0.0,0.0,1.7587433784411914e-05,-0.0067502720844220595,-9.810476097898295,0.0,0.0,0.0,0.0,0.0,0.0,0.0,0.0,0.0
1710446121.6168494,316,1710446121,616733074,map,0.0004086122062682996,6.0238087248861995e-06,1.59757293936501e-08,0.9999999164998857,0.0,0.0,0.0,0.0,0.0,0.0,0.0,0.0,0.0,-0.0,0.0,-0.0,0.0,0.0,0.0,0.0,0.0,0.0,0.0,0.0,0.0,1.7578605291339423e-05,-0.0067576019292491735,-9.810475632237031,0.0,0.0,0.0,0.0,0.0,0.0,0.0,0.0,0.0
1710446121.6323087,317,1710446121,632168770,map,0.0004086122062682996,6.0238087248861995e-06,1.59757293936501e-08,0.9999999164998857,0.0,0.0,0.0,0.0,0.0,0.0,0.0,0.0,0.0,-0.0,0.0,-0.0,0.0,0.0,0.0,0.0,0.0,0.0,0.0,0.0,0.0,1.8473465434787378e-05,-0.0067501352054759435,-9.810410439659904,0.0,0.0,0.0,0.0,0.0,0.0,0.0,0.0,0.0
1710446121.6492484,318,1710446121,649146080,map,0.0004086122062682996,6.0238087248861995e-06,1.59757293936501e-08,0.9999999164998857,0.0,0.0,0.0,0.0,0.0,0.0,0.0,0.0,0.0,-0.0,0.0,-0.0,0.0,0.0,0.0,0.0,0.0,0.0,0.0,0.0,0.0,1.761121742500498e-05,-0.006749665224111126,-9.810135699513442,0.0,0.0,0.0,0.0,0.0,0.0,0.0,0.0,0.0
1710446121.6657467,319,1710446121,665619612,map,0.0004086122062682996,6.0238087248861995e-06,1.59757293936501e-08,0.9999999164998857,0.0,0.0,0.0,0.0,0.0,0.0,0.0,0.0,0.0,-0.0,0.0,-0.0,0.0,0.0,0.0,0.0,0.0,0.0,0.0,0.0,0.0,1.765749063029508e-05,-0.0067575082512993405,-9.810878894892685,0.0,0.0,0.0,0.0,0.0,0.0,0.0,0.0,0.0
1710446121.6825547,320,1710446121,682267904,map,0.0004086122062682996,6.0238087248861995e-06,1.59757293936501e-08,0.9999999164998857,0.0,0.0,0.0,0.0,0.0,0.0,0.0,0.0,0.0,-0.0,0.0,-0.0,0.0,0.0,0.0,0.0,0.0,0.0,0.0,0.0,0.0,1.762559703293693e-05,-0.006749821429818736,-9.810487273768661,0.0,0.0,0.0,0.0,0.0,0.0,0.0,0.0,0.0
1710446121.699062,321,1710446121,698970079,map,0.0004086122062682996,6.0238087248861995e-06,1.59757293936501e-08,0.9999999164998857,0.0,0.0,0.0,0.0,0.0,0.0,0.0,0.0,0.0,-0.0,0.0,-0.0,0.0,0.0,0.0,0.0,0.0,0.0,0.0,0.0,0.0,1.7645791544706463e-05,-0.006749541305463895,-9.810475632237031,0.0,0.0,0.0,0.0,0.0,0.0,0.0,0.0,0.0
1710446121.7159941,322,1710446121,715846539,map,0.0004086122062682996,6.0238087248861995e-06,1.59757293936501e-08,0.9999999164998857,0.0,0.0,0.0,0.0,0.0,0.0,0.0,0.0,0.0,-0.0,0.0,-0.0,0.0,0.0,0.0,0.0,0.0,0.0,0.0,0.0,0.0,1.764539275261496e-05,-0.006756881154732253,-9.810475632237031,0.0,0.0,0.0,0.0,0.0,0.0,0.0,0.0,0.0
1710446121.7323492,323,1710446121,732251167,map,0.0004086122062682996,6.0238087248861995e-06,1.59757293936501e-08,0.9999999164998857,0.0,0.0,0.0,0.0,0.0,0.0,0.0,0.0,0.0,-0.0,0.0,-0.0,0.0,0.0,0.0,0.0,0.0,0.0,0.0,0.0,0.0,1.7663210499046267e-05,-0.006749468545891209,-9.810476097898295,0.0,0.0,0.0,0.0,0.0,0.0,0.0,0.0,0.0
1710446121.7491772,324,1710446121,749084949,map,0.0004086122062682996,6.0238087248861995e-06,1.59757293936501e-08,0.9999999164998857,0.0,0.0,0.0,0.0,0.0,0.0,0.0,0.0,0.0,-0.0,0.0,-0.0,0.0,0.0,0.0,0.0,0.0,0.0,0.0,0.0,0.0,1.7685335910608517e-05,-0.006749196606988295,-9.810476097898295,0.0,0.0,0.0,0.0,0.0,0.0,0.0,0.0,0.0
1710446121.7657166,325,1710446121,765599966,map,0.0004086122062682996,6.0238087248861995e-06,1.59757293936501e-08,0.9999999164998857,0.0,0.0,0.0,0.0,0.0,0.0,0.0,0.0,0.0,-0.0,0.0,-0.0,0.0,0.0,0.0,0.0,0.0,0.0,0.0,0.0,0.0,1.770212958737055e-05,-0.00675653577413566,-9.810475166575765,0.0,0.0,0.0,0.0,0.0,0.0,0.0,0.0,0.0
1710446121.7821488,326,1710446121,782039165,map,0.0004086122062682996,6.0238087248861995e-06,1.59757293936501e-08,0.9999999164998857,0.0,0.0,0.0,0.0,0.0,0.0,0.0,0.0,0.0,-0.0,0.0,-0.0,0.0,0.0,0.0,0.0,0.0,0.0,0.0,0.0,0.0,1.7680455370424077e-05,-0.00674880120418548,-9.810002054730333,0.0,0.0,0.0,0.0,0.0,0.0,0.0,0.0,0.0
1710446121.7998214,327,1710446121,799677610,map,0.0004086122062682996,6.0238087248861995e-06,1.59757293936501e-08,0.9999999164998857,0.0,0.0,0.0,0.0,0.0,0.0,0.0,0.0,0.0,-0.0,0.0,-0.0,0.0,0.0,0.0,0.0,0.0,0.0,0.0,0.0,0.0,1.8580734290153243e-05,-0.0067491916047676724,-9.810945484453608,0.0,0.0,0.0,0.0,0.0,0.0,0.0,0.0,0.0
1710446121.8163767,328,1710446121,816254377,map,0.0004086122062682996,6.0238087248861995e-06,1.59757293936501e-08,0.9999999164998857,0.0,0.0,0.0,0.0,0.0,0.0,0.0,0.0,0.0,-0.0,0.0,-0.0,0.0,0.0,0.0,0.0,0.0,0.0,0.0,0.0,0.0,1.7731338221493473e-05,-0.006756225409083422,-9.810489136413722,0.0,0.0,0.0,0.0,0.0,0.0,0.0,0.0,0.0
1710446121.832699,329,1710446121,832585573,map,0.0004086122062682996,6.0238087248861995e-06,1.59757293936501e-08,0.9999999164998857,0.0,0.0,0.0,0.0,0.0,0.0,0.0,0.0,0.0,-0.0,0.0,-0.0,0.0,0.0,0.0,0.0,0.0,0.0,0.0,0.0,0.0,1.945448332174607e-05,-0.006741413833821211,-9.810476097898295,0.0,0.0,0.0,0.0,0.0,0.0,0.0,0.0,0.0
1710446121.8497381,330,1710446121,849598885,map,0.0004086122062682996,6.0238087248861995e-06,1.59757293936501e-08,0.9999999164998857,0.0,0.0,0.0,0.0,0.0,0.0,0.0,0.0,0.0,-0.0,0.0,-0.0,0.0,0.0,0.0,0.0,0.0,0.0,0.0,0.0,0.0,1.771043849609219e-05,-0.006755910269184226,-9.810475632237031,0.0,0.0,0.0,0.0,0.0,0.0,0.0,0.0,0.0
1710446121.8657632,331,1710446121,865614891,map,0.0004086122062682996,6.0238087248861995e-06,1.59757293936501e-08,0.9999999164998857,0.0,0.0,0.0,0.0,0.0,0.0,0.0,0.0,0.0,-0.0,0.0,-0.0,0.0,0.0,0.0,0.0,0.0,0.0,0.0,0.0,0.0,1.778636087198046e-05,-0.0067487163938085674,-9.810475632237031,0.0,0.0,0.0,0.0,0.0,0.0,0.0,0.0,0.0
1710446121.8826003,332,1710446121,882404566,map,0.0004086122062682996,6.0238087248861995e-06,1.59757293936501e-08,0.9999999164998857,0.0,0.0,0.0,0.0,0.0,0.0,0.0,0.0,0.0,-0.0,0.0,-0.0,0.0,0.0,0.0,0.0,0.0,0.0,0.0,0.0,0.0,1.7691117063667754e-05,-0.006748461507930502,-9.810475632237031,0.0,0.0,0.0,0.0,0.0,0.0,0.0,0.0,0.0
1710446121.8996983,333,1710446121,899482012,map,0.0004086122062682996,6.0238087248861995e-06,1.59757293936501e-08,0.9999999164998857,0.0,0.0,0.0,0.0,0.0,0.0,0.0,0.0,0.0,-0.0,0.0,-0.0,0.0,0.0,0.0,0.0,0.0,0.0,0.0,0.0,0.0,1.7701579804954867e-05,-0.006748410121482293,-9.810475632237031,0.0,0.0,0.0,0.0,0.0,0.0,0.0,0.0,0.0
1710446121.9159966,334,1710446121,915781498,map,0.0004086122062682996,6.0238087248861995e-06,1.59757293936501e-08,0.9999999164998857,0.0,0.0,0.0,0.0,0.0,0.0,0.0,0.0,0.0,-0.0,0.0,-0.0,0.0,0.0,0.0,0.0,0.0,0.0,0.0,0.0,0.0,1.7733484948631922e-05,-0.006748323946863393,-9.81040997399864,0.0,0.0,0.0,0.0,0.0,0.0,0.0,0.0,0.0
1710446121.9324157,335,1710446121,932289839,map,0.0004086122062682996,6.0238087248861995e-06,1.59757293936501e-08,0.9999999164998857,0.0,0.0,0.0,0.0,0.0,0.0,0.0,0.0,0.0,-0.0,0.0,-0.0,0.0,0.0,0.0,0.0,0.0,0.0,0.0,0.0,0.0,1.776709006572354e-05,-0.006748097710067073,-9.810135233852177,0.0,0.0,0.0,0.0,0.0,0.0,0.0,0.0,0.0
1710446121.9492302,336,1710446121,949139118,map,0.0004086122062682996,6.0238087248861995e-06,1.59757293936501e-08,0.9999999164998857,0.0,0.0,0.0,0.0,0.0,0.0,0.0,0.0,0.0,-0.0,0.0,-0.0,0.0,0.0,0.0,0.0,0.0,0.0,0.0,0.0,0.0,1.7775077453872524e-05,-0.006748575649510154,-9.810878894892685,0.0,0.0,0.0,0.0,0.0,0.0,0.0,0.0,0.0
1710446121.9655478,337,1710446121,965433359,map,0.0004086122062682996,6.0238087248861995e-06,1.59757293936501e-08,0.9999999164998857,0.0,0.0,0.0,0.0,0.0,0.0,0.0,0.0,0.0,-0.0,0.0,-0.0,0.0,0.0,0.0,0.0,0.0,0.0,0.0,0.0,0.0,1.7761589577031596e-05,-0.006748269831931208,-9.810486808107395,0.0,0.0,0.0,0.0,0.0,0.0,0.0,0.0,0.0
1710446121.982259,338,1710446121,982118845,map,0.0004086122062682996,6.0238087248861995e-06,1.59757293936501e-08,0.9999999164998857,0.0,0.0,0.0,0.0,0.0,0.0,0.0,0.0,0.0,-0.0,0.0,-0.0,0.0,0.0,0.0,0.0,0.0,0.0,0.0,0.0,0.0,1.7824996631402315e-05,-0.006748225266692938,-9.810475166575765,0.0,0.0,0.0,0.0,0.0,0.0,0.0,0.0,0.0
1710446121.9993181,339,1710446121,999172211,map,0.0004086122062682996,6.0238087248861995e-06,1.59757293936501e-08,0.9999999164998857,0.0,0.0,0.0,0.0,0.0,0.0,0.0,0.0,0.0,-0.0,0.0,-0.0,0.0,0.0,0.0,0.0,0.0,0.0,0.0,0.0,0.0,1.7740655212673593e-05,-0.006748190705895912,-9.810475632237031,0.0,0.0,0.0,0.0,0.0,0.0,0.0,0.0,0.0
1710446122.0157871,340,1710446122,15599251,map,0.0004086122062682996,6.0238087248861995e-06,1.59757293936501e-08,0.9999999164998857,0.0,0.0,0.0,0.0,0.0,0.0,0.0,0.0,0.0,-0.0,0.0,-0.0,0.0,0.0,0.0,0.0,0.0,0.0,0.0,0.0,0.0,1.782436957746779e-05,-0.006748154098735904,-9.810475632237031,0.0,0.0,0.0,0.0,0.0,0.0,0.0,0.0,0.0
1710446122.0322435,341,1710446122,32133818,map,0.0004086122062682996,6.0238087248861995e-06,1.59757293936501e-08,0.9999999164998857,0.0,0.0,0.0,0.0,0.0,0.0,0.0,0.0,0.0,-0.0,0.0,-0.0,0.0,0.0,0.0,0.0,0.0,0.0,0.0,0.0,0.0,1.7799592065270285e-05,-0.006740719207275724,-9.810476097898295,0.0,0.0,0.0,0.0,0.0,0.0,0.0,0.0,0.0
1710446122.0487533,342,1710446122,48647642,map,0.0004086122062682996,6.0238087248861995e-06,1.59757293936501e-08,0.9999999164998857,0.0,0.0,0.0,0.0,0.0,0.0,0.0,0.0,0.0,-0.0,0.0,-0.0,0.0,0.0,0.0,0.0,0.0,0.0,0.0,0.0,0.0,1.78438224602921e-05,-0.006755114006610644,-9.810002054730333,0.0,0.0,0.0,0.0,0.0,0.0,0.0,0.0,0.0
1710446122.0652332,343,1710446122,65118551,map,0.0004086122062682996,6.0238087248861995e-06,1.59757293936501e-08,0.9999999164998857,0.0,0.0,0.0,0.0,0.0,0.0,0.0,0.0,0.0,-0.0,0.0,-0.0,0.0,0.0,0.0,0.0,0.0,0.0,0.0,0.0,0.0,1.782167217973528e-05,-0.006741187824398555,-9.810945484453608,0.0,0.0,0.0,0.0,0.0,0.0,0.0,0.0,0.0
1710446122.0826578,344,1710446122,82478285,map,0.0004086122062682996,6.0238087248861995e-06,1.59757293936501e-08,0.9999999164998857,0.0,0.0,0.0,0.0,0.0,0.0,0.0,0.0,0.0,-0.0,0.0,-0.0,0.0,0.0,0.0,0.0,0.0,0.0,0.0,0.0,0.0,1.8726631799513944e-05,-0.00675538412652424,-9.810489602074986,0.0,0.0,0.0,0.0,0.0,0.0,0.0,0.0,0.0
1710446122.0989554,345,1710446122,98824739,map,0.0004086122062682996,6.0238087248861995e-06,1.59757293936501e-08,0.9999999164998857,0.0,0.0,0.0,0.0,0.0,0.0,0.0,0.0,0.0,-0.0,0.0,-0.0,0.0,0.0,0.0,0.0,0.0,0.0,0.0,0.0,0.0,1.7846267615365396e-05,-0.006740792876343069,-9.810476097898295,0.0,0.0,0.0,0.0,0.0,0.0,0.0,0.0,0.0
1710446122.1157506,346,1710446122,115563393,map,0.0004086122062682996,6.0238087248861995e-06,1.59757293936501e-08,0.9999999164998857,0.0,0.0,0.0,0.0,0.0,0.0,0.0,0.0,0.0,-0.0,0.0,-0.0,0.0,0.0,0.0,0.0,0.0,0.0,0.0,0.0,0.0,1.78760535654337e-05,-0.006740502292799654,-9.810476097898295,0.0,0.0,0.0,0.0,0.0,0.0,0.0,0.0,0.0
1710446122.1326272,347,1710446122,132450581,map,0.0004086122062682996,6.0238087248861995e-06,1.59757293936501e-08,0.9999999164998857,0.0,0.0,0.0,0.0,0.0,0.0,0.0,0.0,0.0,-0.0,0.0,-0.0,0.0,0.0,0.0,0.0,0.0,0.0,0.0,0.0,0.0,1.783243601349237e-05,-0.006755435058225121,-9.810475632237031,0.0,0.0,0.0,0.0,0.0,0.0,0.0,0.0,0.0
1710446122.1492245,348,1710446122,149109364,map,0.0004086122062682996,6.0238087248861995e-06,1.59757293936501e-08,0.9999999164998857,0.0,0.0,0.0,0.0,0.0,0.0,0.0,0.0,0.0,-0.0,0.0,-0.0,0.0,0.0,0.0,0.0,0.0,0.0,0.0,0.0,0.0,1.787975904562469e-05,-0.006740864271673767,-9.810476097898295,0.0,0.0,0.0,0.0,0.0,0.0,0.0,0.0,0.0
1710446122.1659338,349,1710446122,165805340,map,0.0004086122062682996,6.0238087248861995e-06,1.59757293936501e-08,0.9999999164998857,0.0,0.0,0.0,0.0,0.0,0.0,0.0,0.0,0.0,-0.0,0.0,-0.0,0.0,0.0,0.0,0.0,0.0,0.0,0.0,0.0,0.0,1.7852344531824346e-05,-0.006740576416614328,-9.810476097898295,0.0,0.0,0.0,0.0,0.0,0.0,0.0,0.0,0.0
1710446122.1822698,350,1710446122,182152748,map,0.0004086122062682996,6.0238087248861995e-06,1.59757293936501e-08,0.9999999164998857,0.0,0.0,0.0,0.0,0.0,0.0,0.0,0.0,0.0,-0.0,0.0,-0.0,0.0,0.0,0.0,0.0,0.0,0.0,0.0,0.0,0.0,1.792674634633031e-05,-0.006755508272545135,-9.810476097898295,0.0,0.0,0.0,0.0,0.0,0.0,0.0,0.0,0.0
1710446122.1995208,351,1710446122,199264050,map,0.0004086122062682996,6.0238087248861995e-06,1.59757293936501e-08,0.9999999164998857,0.0,0.0,0.0,0.0,0.0,0.0,0.0,0.0,0.0,-0.0,0.0,-0.0,0.0,0.0,0.0,0.0,0.0,0.0,0.0,0.0,0.0,1.7881703268093067e-05,-0.006740609613169366,-9.810002054730333,0.0,0.0,0.0,0.0,0.0,0.0,0.0,0.0,0.0
1710446122.2162209,352,1710446122,216082811,map,0.0004086122062682996,6.0238087248861995e-06,1.59757293936501e-08,0.9999999164998857,0.0,0.0,0.0,0.0,0.0,0.0,0.0,0.0,0.0,-0.0,0.0,-0.0,0.0,0.0,0.0,0.0,0.0,0.0,0.0,0.0,0.0,1.795375585079051e-05,-0.006748372377453962,-9.810945018792342,0.0,0.0,0.0,0.0,0.0,0.0,0.0,0.0,0.0
1710446122.2322907,353,1710446122,232124567,map,0.0004086122062682996,6.0238087248861995e-06,1.59757293936501e-08,0.9999999164998857,0.0,0.0,0.0,0.0,0.0,0.0,0.0,0.0,0.0,-0.0,0.0,-0.0,0.0,0.0,0.0,0.0,0.0,0.0,0.0,0.0,0.0,1.7899962439178e-05,-0.0067556312816977075,-9.810489602074986,0.0,0.0,0.0,0.0,0.0,0.0,0.0,0.0,0.0
1710446122.2490857,354,1710446122,248986006,map,0.0004086122062682996,6.0238087248861995e-06,1.59757293936501e-08,0.9999999164998857,0.0,0.0,0.0,0.0,0.0,0.0,0.0,0.0,0.0,-0.0,0.0,-0.0,0.0,0.0,0.0,0.0,0.0,0.0,0.0,0.0,0.0,1.793359864251283e-05,-0.006748236408002505,-9.810475632237031,0.0,0.0,0.0,0.0,0.0,0.0,0.0,0.0,0.0
1710446122.2657382,355,1710446122,265539408,map,0.0004086122062682996,6.0238087248861995e-06,1.59757293936501e-08,0.9999999164998857,0.0,0.0,0.0,0.0,0.0,0.0,0.0,0.0,0.0,-0.0,0.0,-0.0,0.0,0.0,0.0,0.0,0.0,0.0,0.0,0.0,0.0,1.7902939613099426e-05,-0.006755385490766228,-9.810476097898295,0.0,0.0,0.0,0.0,0.0,0.0,0.0,0.0,0.0
1710446122.2823377,356,1710446122,282187700,map,0.0004086122062682996,6.0238087248861995e-06,1.59757293936501e-08,0.9999999164998857,0.0,0.0,0.0,0.0,0.0,0.0,0.0,0.0,0.0,-0.0,0.0,-0.0,0.0,0.0,0.0,0.0,0.0,0.0,0.0,0.0,0.0,1.7975520661931487e-05,-0.006755390038239521,-9.810476097898295,0.0,0.0,0.0,0.0,0.0,0.0,0.0,0.0,0.0
1710446122.2991252,357,1710446122,298967838,map,0.0004086122062682996,6.0238087248861995e-06,1.59757293936501e-08,0.9999999164998857,0.0,0.0,0.0,0.0,0.0,0.0,0.0,0.0,0.0,-0.0,0.0,-0.0,0.0,0.0,0.0,0.0,0.0,0.0,0.0,0.0,0.0,1.7942234400877396e-05,-0.006755184719820348,-9.810476097898295,0.0,0.0,0.0,0.0,0.0,0.0,0.0,0.0,0.0
1710446122.315891,358,1710446122,315696239,map,0.0004086122062682996,6.0238087248861995e-06,1.59757293936501e-08,0.9999999164998857,0.0,0.0,0.0,0.0,0.0,0.0,0.0,0.0,0.0,-0.0,0.0,-0.0,0.0,0.0,0.0,0.0,0.0,0.0,0.0,0.0,0.0,1.79489570230168e-05,-0.006754932107678929,-9.810410439659904,0.0,0.0,0.0,0.0,0.0,0.0,0.0,0.0,0.0
1710446122.3325171,359,1710446122,332320213,map,0.0004086122062682996,6.0238087248861995e-06,1.59757293936501e-08,0.9999999164998857,0.0,0.0,0.0,0.0,0.0,0.0,0.0,0.0,0.0,-0.0,0.0,-0.0,0.0,0.0,0.0,0.0,0.0,0.0,0.0,0.0,0.0,1.835784414995937e-05,-0.006747134100476313,-9.810135233852177,0.0,0.0,0.0,0.0,0.0,0.0,0.0,0.0,0.0
1710446122.3487659,360,1710446122,348670959,map,0.0004086122062682996,6.0238087248861995e-06,1.59757293936501e-08,0.9999999164998857,0.0,0.0,0.0,0.0,0.0,0.0,0.0,0.0,0.0,-0.0,0.0,-0.0,0.0,0.0,0.0,0.0,0.0,0.0,0.0,0.0,0.0,1.8519199515802324e-05,-0.006754800230953435,-9.810879360553951,0.0,0.0,0.0,0.0,0.0,0.0,0.0,0.0,0.0
1710446122.3652868,361,1710446122,365150213,map,0.0004086122062682996,6.0238087248861995e-06,1.59757293936501e-08,0.9999999164998857,0.0,0.0,0.0,0.0,0.0,0.0,0.0,0.0,0.0,-0.0,0.0,-0.0,0.0,0.0,0.0,0.0,0.0,0.0,0.0,0.0,0.0,1.7912846354722218e-05,-0.006747145014412216,-9.810487273768661,0.0,0.0,0.0,0.0,0.0,0.0,0.0,0.0,0.0
1710446122.382317,362,1710446122,382149696,map,0.0004086122062682996,6.0238087248861995e-06,1.59757293936501e-08,0.9999999164998857,0.0,0.0,0.0,0.0,0.0,0.0,0.0,0.0,0.0,-0.0,0.0,-0.0,0.0,0.0,0.0,0.0,0.0,0.0,0.0,0.0,0.0,1.7942137589434246e-05,-0.006754303192122525,-9.810476097898295,0.0,0.0,0.0,0.0,0.0,0.0,0.0,0.0,0.0
1710446122.3987012,363,1710446122,398585558,map,0.0004086122062682996,6.0238087248861995e-06,1.59757293936501e-08,0.9999999164998857,0.0,0.0,0.0,0.0,0.0,0.0,0.0,0.0,0.0,-0.0,0.0,-0.0,0.0,0.0,0.0,0.0,0.0,0.0,0.0,0.0,0.0,1.9772110120399083e-05,-0.006754324792620666,-9.810476097898295,0.0,0.0,0.0,0.0,0.0,0.0,0.0,0.0,0.0
1710446122.41513,364,1710446122,415012121,map,0.0004086122062682996,6.0238087248861995e-06,1.59757293936501e-08,0.9999999164998857,0.0,0.0,0.0,0.0,0.0,0.0,0.0,0.0,0.0,-0.0,0.0,-0.0,0.0,0.0,0.0,0.0,0.0,0.0,0.0,0.0,0.0,1.7919235021791673e-05,-0.006754135845105347,-9.810475632237031,0.0,0.0,0.0,0.0,0.0,0.0,0.0,0.0,0.0
1710446122.4323916,365,1710446122,432229042,map,0.0004086122062682996,6.0238087248861995e-06,1.59757293936501e-08,0.9999999164998857,0.0,0.0,0.0,0.0,0.0,0.0,0.0,0.0,0.0,-0.0,0.0,-0.0,0.0,0.0,0.0,0.0,0.0,0.0,0.0,0.0,0.0,1.802806795928034e-05,-0.006746541337332587,-9.810475632237031,0.0,0.0,0.0,0.0,0.0,0.0,0.0,0.0,0.0
1710446122.4493153,366,1710446122,449215651,map,0.0004086122062682996,6.0238087248861995e-06,1.59757293936501e-08,0.9999999164998857,0.0,0.0,0.0,0.0,0.0,0.0,0.0,0.0,0.0,-0.0,0.0,-0.0,0.0,0.0,0.0,0.0,0.0,0.0,0.0,0.0,0.0,1.7986378642596593e-05,-0.006746265078330046,-9.81040997399864,0.0,0.0,0.0,0.0,0.0,0.0,0.0,0.0,0.0
1710446122.4656522,367,1710446122,465526104,map,0.0004080720392456909,6.045129556526475e-06,1.6415612209831047e-08,0.9999999167203301,0.0,0.0,0.0,0.0,0.0,0.0,0.0,0.0,0.0,-0.00010803341397986219,4.264203334393996e-06,8.55856955920789e-08,0.0,0.0,0.0,0.0,0.0,0.0,0.0,0.0,0.0,1.7915080123341664e-05,-0.006753461454816014,-9.810135233852177,0.0,0.0,0.0,0.0,0.0,0.0,0.0,0.0,0.0
1710446122.482572,368,1710446122,482330799,map,0.00040752814693291076,6.0663262421523126e-06,1.68617762242378e-08,0.999999916942001,0.0,0.0,0.0,0.0,0.0,0.0,0.0,0.0,0.0,-0.00010877847206020349,4.2393746559528906e-06,8.684756564097161e-08,0.0,0.0,0.0,0.0,0.0,0.0,0.0,0.0,0.0,9.200401558816887e-06,-0.0072053634300637895,-9.810813236654294,0.0,0.0,0.0,0.0,0.0,0.0,0.0,0.0,0.0
1710446122.4991462,369,1710446122,499013424,map,0.00040752814693291076,6.0663262421523126e-06,1.68617762242378e-08,0.999999916942001,0.0,0.0,0.0,0.0,0.0,0.0,0.0,0.0,0.0,-0.0,0.0,-0.0,0.0,0.0,0.0,0.0,0.0,0.0,0.0,0.0,0.0,3.7090806440859047e-06,-0.006623030825829881,-9.810556191635909,0.0,0.0,0.0,0.0,0.0,0.0,0.0,0.0,0.0
1710446122.516047,370,1710446122,515857935,map,0.00040752814693291076,6.0663262421523126e-06,1.68617762242378e-08,0.999999916942001,0.0,0.0,0.0,0.0,0.0,0.0,0.0,0.0,0.0,-0.0,0.0,-0.0,0.0,0.0,0.0,0.0,0.0,0.0,0.0,0.0,0.0,4.057964704698499e-05,-0.005669131454792731,-9.810479357527152,0.0,0.0,0.0,0.0,0.0,0.0,0.0,0.0,0.0
1710446122.5322967,371,1710446122,532171488,map,0.00040752814693291076,6.0663262421523126e-06,1.68617762242378e-08,0.999999916942001,0.0,0.0,0.0,0.0,0.0,0.0,0.0,0.0,0.0,-0.0,0.0,-0.0,0.0,0.0,0.0,0.0,0.0,0.0,0.0,0.0,0.0,2.0050412821387673e-05,-0.006509925842715923,-9.810476563559561,0.0,0.0,0.0,0.0,0.0,0.0,0.0,0.0,0.0
1710446122.5489292,372,1710446122,548813581,map,0.00040752814693291076,6.0663262421523126e-06,1.68617762242378e-08,0.999999916942001,0.0,0.0,0.0,0.0,0.0,0.0,0.0,0.0,0.0,-0.0,0.0,-0.0,0.0,0.0,0.0,0.0,0.0,0.0,0.0,0.0,0.0,1.736357908250006e-05,-0.006576427182656213,-9.81006817862999,0.0,0.0,0.0,0.0,0.0,0.0,0.0,0.0,0.0
1710446122.5674808,373,1710446122,567359447,map,0.00040752814693291076,6.0663262421523126e-06,1.68617762242378e-08,0.999999916942001,0.0,0.0,0.0,0.0,0.0,0.0,0.0,0.0,0.0,-0.0,0.0,-0.0,0.0,0.0,0.0,0.0,0.0,0.0,0.0,0.0,0.0,1.8216513653815848e-05,-0.006634776039850709,-9.810811374009234,0.0,0.0,0.0,0.0,0.0,0.0,0.0,0.0,0.0
1710446122.5821748,374,1710446122,582033873,map,0.00040752814693291076,6.0663262421523126e-06,1.68617762242378e-08,0.999999916942001,0.0,0.0,0.0,0.0,0.0,0.0,0.0,0.0,0.0,-0.0,0.0,-0.0,0.0,0.0,0.0,0.0,0.0,0.0,0.0,0.0,0.0,1.4102733421792755e-05,-0.006535488326963475,-9.810556191635909,0.0,0.0,0.0,0.0,0.0,0.0,0.0,0.0,0.0
1710446122.5988462,375,1710446122,598692894,map,0.00040831045779409446,5.84919846956338e-06,-1.2453431479870598e-07,0.9999999166241672,0.0,0.0,0.0,0.0,0.0,0.0,0.0,0.0,0.0,0.0001564623498275151,-4.343709984951487e-05,-2.8260535587013962e-05,0.0,0.0,0.0,0.0,0.0,0.0,0.0,0.0,0.0,1.0068882804452677e-05,-0.007877119368118036,-9.810477494882091,0.0,0.0,0.0,0.0,0.0,0.0,0.0,0.0,0.0
1710446122.6153336,376,1710446122,615193844,map,0.00041213260513199074,5.445242282043878e-06,-4.167363134442208e-07,0.9999999150584422,0.0,0.0,0.0,0.0,0.0,0.0,0.0,0.0,0.0,0.0007644298599983159,-8.081521878903882e-05,-5.840262680134073e-05,0.0,0.0,0.0,0.0,0.0,0.0,0.0,0.0,0.0,0.0023074480607154623,-0.010176718177291214,-9.81047376959197,0.0,0.0,0.0,0.0,0.0,0.0,0.0,0.0,0.0
1710446122.632071,377,1710446122,631963968,map,0.0004186444116639664,5.650645740471408e-06,-4.1537567977799796e-07,0.9999999123523733,0.0,0.0,0.0,0.0,0.0,0.0,0.0,0.0,0.0,0.0013023614001761736,4.1081347743732025e-05,2.6201995115108907e-07,0.0,0.0,0.0,0.0,0.0,0.0,0.0,0.0,0.0,0.00059967647552639,-0.012028560260496732,-9.811419061960306,0.0,0.0,0.0,0.0,0.0,0.0,0.0,0.0,0.0
1710446122.648676,378,1710446122,648563862,map,0.00042796511210506865,5.6491649427305474e-06,-4.447980011745948e-07,0.9999999084068718,0.0,0.0,0.0,0.0,0.0,0.0,0.0,0.0,0.0,0.0018641402885777114,-2.9789899090183627e-07,-5.873803734171763e-06,0.0,0.0,0.0,0.0,0.0,0.0,0.0,0.0,0.0,-0.0037918206789763252,-0.015643743320671227,-9.810878894892685,0.0,0.0,0.0,0.0,0.0,0.0,0.0,0.0,0.0
1710446122.6652427,379,1710446122,665139675,map,0.00044047833466095824,5.709093911030532e-06,-4.7069972822732863e-07,0.999999902973006,0.0,0.0,0.0,0.0,0.0,0.0,0.0,0.0,0.0,0.002502644771362452,1.198463015467659e-05,-5.171487036112805e-06,0.0,0.0,0.0,0.0,0.0,0.0,0.0,0.0,0.0,0.0010143356747924679,-0.021105094581623726,-9.810984134338618,0.0,0.0,0.0,0.0,0.0,0.0,0.0,0.0,0.0
1710446122.6823006,380,1710446122,682155371,map,0.00045586008267320025,5.7686802165573e-06,-4.961042725415394e-07,0.9999998960790253,0.0,0.0,0.0,0.0,0.0,0.0,0.0,0.0,0.0,0.0030763499351105375,1.1916399862110244e-05,-5.0687784410770306e-06,0.0,0.0,0.0,0.0,0.0,0.0,0.0,0.0,0.0,-0.0002851656979442001,-0.02712068506630143,-9.811441413701035,0.0,0.0,0.0,0.0,0.0,0.0,0.0,0.0,0.0
1710446122.6984591,381,1710446122,698309422,map,0.00047358128604987166,5.827905558480344e-06,-5.220223680734662e-07,0.999999887843258,0.0,0.0,0.0,0.0,0.0,0.0,0.0,0.0,0.0,0.003544241082402718,1.1844380368254482e-05,-5.168783385154114e-06,0.0,0.0,0.0,0.0,0.0,0.0,0.0,0.0,0.0,3.299435234853531e-05,-0.034134321337996154,-9.811285882838462,0.0,0.0,0.0,0.0,0.0,0.0,0.0,0.0,0.0
1710446122.7163315,382,1710446122,716089249,map,0.0004940480274215484,5.8982753835760435e-06,-5.46398868658194e-07,0.9999998779407219,0.0,0.0,0.0,0.0,0.0,0.0,0.0,0.0,0.0,0.004093348774863438,1.4073703518675996e-05,-4.858398167212494e-06,0.0,0.0,0.0,0.0,0.0,0.0,0.0,0.0,0.0,1.4025959282840451e-05,-0.041335434926894093,-9.810909628536187,0.0,0.0,0.0,0.0,0.0,0.0,0.0,0.0,0.0
1710446122.7328975,383,1710446122,732696533,map,0.0005159155077682332,5.9751657244328946e-06,-5.698866551824921e-07,0.9999998668975719,0.0,0.0,0.0,0.0,0.0,0.0,0.0,0.0,0.0,0.0043734966466938,1.5378045846337344e-05,-4.679695638590363e-06,0.0,0.0,0.0,0.0,0.0,0.0,0.0,0.0,0.0,-2.2664516297475803e-05,-0.05210917995887047,-9.811619296304338,0.0,0.0,0.0,0.0,0.0,0.0,0.0,0.0,0.0
1710446122.7487803,384,1710446122,748680830,map,0.0005381108154832147,6.061572113318603e-06,-5.92049195929191e-07,0.9999998551998182,0.0,0.0,0.0,0.0,0.0,0.0,0.0,0.0,0.0,0.004439062176539532,1.7281434424062837e-05,-4.415284011356936e-06,0.0,0.0,0.0,0.0,0.0,0.0,0.0,0.0,0.0,-3.5747847427368848e-06,-0.060426303975233804,-9.810791816236096,0.0,0.0,0.0,0.0,0.0,0.0,0.0,0.0,0.0
1710446122.766254,385,1710446122,766125679,map,0.0005598515395743934,6.159596659493967e-06,-6.126631572161079e-07,0.9999998432639565,0.0,0.0,0.0,0.0,0.0,0.0,0.0,0.0,0.0,0.0043481454873155615,1.960518736933688e-05,-4.107412326052492e-06,0.0,0.0,0.0,0.0,0.0,0.0,0.0,0.0,0.0,-2.9328643008935567e-05,-0.06997895374790379,-9.810879826215215,0.0,0.0,0.0,0.0,0.0,0.0,0.0,0.0,0.0
1710446122.782081,386,1710446122,781869650,map,0.0005799271228007601,6.2697723236158634e-06,-6.313187625708977e-07,0.9999998318223977,0.0,0.0,0.0,0.0,0.0,0.0,0.0,0.0,0.0,0.004015117307236268,2.2035439845859853e-05,-3.7191691672108235e-06,0.0,0.0,0.0,0.0,0.0,0.0,0.0,0.0,0.0,-1.6673875709760536e-05,-0.07973940576965949,-9.810716379111135,0.0,0.0,0.0,0.0,0.0,0.0,0.0,0.0,0.0
1710446122.7986512,387,1710446122,798511982,map,0.0005976967514592648,6.394277535231095e-06,-6.472562863741905e-07,0.999999821358628,0.0,0.0,0.0,0.0,0.0,0.0,0.0,0.0,0.0,0.003553926352502465,2.4901389890479644e-05,-3.180106519453627e-06,0.0,0.0,0.0,0.0,0.0,0.0,0.0,0.0,0.0,-3.3776295710314786e-05,-0.08828719400234111,-9.8105589856035,0.0,0.0,0.0,0.0,0.0,0.0,0.0,0.0,0.0
1710446122.8153646,388,1710446122,815054655,map,0.0006130487036244006,6.53624543956783e-06,-6.598459431391335e-07,0.9999998120640469,0.0,0.0,0.0,0.0,0.0,0.0,0.0,0.0,0.0,0.0030703909937968015,2.839403143396765e-05,-2.5157058330419436e-06,0.0,0.0,0.0,0.0,0.0,0.0,0.0,0.0,0.0,-2.471085352209492e-05,-0.09630939800475789,-9.810269344296552,0.0,0.0,0.0,0.0,0.0,0.0,0.0,0.0,0.0
1710446122.832436,389,1710446122,832250118,map,0.000625107464262505,6.574288646288095e-06,-6.442974434963312e-07,0.9999998045984918,0.0,0.0,0.0,0.0,0.0,0.0,0.0,0.0,0.0,0.002411752564309096,7.612185088228541e-06,3.1207059017383948e-06,0.0,0.0,0.0,0.0,0.0,0.0,0.0,0.0,0.0,-1.2326072909759813e-05,-0.10360703035005503,-9.809647686507523,0.0,0.0,0.0,0.0,0.0,0.0,0.0,0.0,0.0
1710446122.8488545,390,1710446122,848748207,map,0.0006340369819272727,6.660122175014799e-06,-6.240711864447922e-07,0.9999997989761593,0.0,0.0,0.0,0.0,0.0,0.0,0.0,0.0,0.0,0.0017859038489189696,1.717042528391105e-05,4.046106581308851e-06,0.0,0.0,0.0,0.0,0.0,0.0,0.0,0.0,0.0,0.0007135734011143019,-0.10331395570077073,-9.809709619455793,0.0,0.0,0.0,0.0,0.0,0.0,0.0,0.0,0.0
1710446122.8652747,391,1710446122,865092278,map,0.0006407425019763585,6.742377759593027e-06,-5.988628888234711e-07,0.999999794701593,0.0,0.0,0.0,0.0,0.0,0.0,0.0,0.0,0.0,0.0013411042380205667,1.6455186641889804e-05,5.0400489367905855e-06,0.0,0.0,0.0,0.0,0.0,0.0,0.0,0.0,0.0,-0.00016612102725968768,-0.10599609091919787,-9.808771777667701,0.0,0.0,0.0,0.0,0.0,0.0,0.0,0.0,0.0
1710446122.882974,392,1710446122,882871866,map,0.000645786543111758,6.841702747565163e-06,-5.669088696035197e-07,0.9999997914562835,0.0,0.0,0.0,0.0,0.0,0.0,0.0,0.0,0.0,0.0010088083802390578,1.9869729095176284e-05,6.384775337498039e-06,0.0,0.0,0.0,0.0,0.0,0.0,0.0,0.0,0.0,9.439999266879093e-05,-0.11004631164991353,-9.80931008209026,0.0,0.0,0.0,0.0,0.0,0.0,0.0,0.0,0.0
1710446122.8990192,393,1710446122,898898125,map,0.0006500296471010964,6.923386269124e-06,-5.168299283567682e-07,0.9999997887066064,0.0,0.0,0.0,0.0,0.0,0.0,0.0,0.0,0.0,0.0008486208974320215,1.6343696297021667e-05,1.0010972488377459e-05,0.0,0.0,0.0,0.0,0.0,0.0,0.0,0.0,0.0,8.274830383111528e-05,-0.11802928641922203,-9.809226263062525,0.0,0.0,0.0,0.0,0.0,0.0,0.0,0.0,0.0
1710446122.9156868,394,1710446122,915557146,map,0.0006542019705682756,6.992090845974101e-06,-4.608227018358732e-07,0.9999997859853171,0.0,0.0,0.0,0.0,0.0,0.0,0.0,0.0,0.0,0.0008344647854816504,1.374867550539385e-05,1.1198230611300369e-05,0.0,0.0,0.0,0.0,0.0,0.0,0.0,0.0,0.0,0.00034049199885489165,-0.1204178676846798,-9.808260481598522,0.0,0.0,0.0,0.0,0.0,0.0,0.0,0.0,0.0
1710446122.9321907,395,1710446122,932084799,map,0.000659048571267106,7.079693809999486e-06,-3.935996433760439e-07,0.9999997828023284,0.0,0.0,0.0,0.0,0.0,0.0,0.0,0.0,0.0,0.0009693202455267995,1.7529900820497282e-05,1.3439839129119402e-05,0.0,0.0,0.0,0.0,0.0,0.0,0.0,0.0,0.0,0.00030886487632627967,-0.11705626628723034,-9.808816481149158,0.0,0.0,0.0,0.0,0.0,0.0,0.0,0.0,0.0
1710446122.9489954,396,1710446122,948877811,map,0.0006653667006221279,7.1605673869321095e-06,-3.0519174275883645e-07,0.9999997786178689,0.0,0.0,0.0,0.0,0.0,0.0,0.0,0.0,0.0,0.0012636260151311603,1.618697988450823e-05,1.7679759843742584e-05,0.0,0.0,0.0,0.0,0.0,0.0,0.0,0.0,0.0,0.00016686393340541866,-0.11994601003238092,-9.8096025173648,0.0,0.0,0.0,0.0,0.0,0.0,0.0,0.0,0.0
1710446122.9653451,397,1710446122,965218544,map,0.0006736107649662434,7.235776198129675e-06,-2.0934071291494118e-07,0.9999997730980428,0.0,0.0,0.0,0.0,0.0,0.0,0.0,0.0,0.0,0.0016488130950624343,1.5055183290029812e-05,1.9171875420594535e-05,0.0,0.0,0.0,0.0,0.0,0.0,0.0,0.0,0.0,0.0002834002977576373,-0.1218093772318999,-9.808955713867451,0.0,0.0,0.0,0.0,0.0,0.0,0.0,0.0,0.0
1710446122.9820597,398,1710446122,981953144,map,0.0006840490242773915,7.33574235390521e-06,-9.896597633962569e-08,0.9999997660115274,0.0,0.0,0.0,0.0,0.0,0.0,0.0,0.0,0.0,0.0020876521771624715,2.0008774266581112e-05,2.2076371279834324e-05,0.0,0.0,0.0,0.0,0.0,0.0,0.0,0.0,0.0,0.0002764038466717334,-0.12067899087711374,-9.80977388071039,0.0,0.0,0.0,0.0,0.0,0.0,0.0,0.0,0.0
1710446122.998901,399,1710446122,998763323,map,0.0006964728622452786,7.395345120084421e-06,3.749122073658273e-08,0.9999997574354004,0.0,0.0,0.0,0.0,0.0,0.0,0.0,0.0,0.0,0.0024847679825201084,1.1939816807597178e-05,2.730135789541104e-05,0.0,0.0,0.0,0.0,0.0,0.0,0.0,0.0,0.0,0.0001838388625053078,-0.12616963923475555,-9.810209739654608,0.0,0.0,0.0,0.0,0.0,0.0,0.0,0.0,0.0
1710446123.0160542,400,1710446123,15773058,map,0.0007110648178508404,7.502076525945737e-06,1.858731276010272e-07,0.9999997471652226,0.0,0.0,0.0,0.0,0.0,0.0,0.0,0.0,0.0,0.002918391622059649,2.1367283697069377e-05,2.968277786809907e-05,0.0,0.0,0.0,0.0,0.0,0.0,0.0,0.0,0.0,0.0005172879336761571,-0.12644693005898763,-9.809818118530583,0.0,0.0,0.0,0.0,0.0,0.0,0.0,0.0,0.0
1710446123.0323002,401,1710446123,32175303,map,0.0007269606239636624,7.564505977625063e-06,3.6035079390674727e-07,0.9999997357354149,0.0,0.0,0.0,0.0,0.0,0.0,0.0,0.0,0.0,0.0031791617827107055,1.2510681322826306e-05,3.491029803369215e-05,0.0,0.0,0.0,0.0,0.0,0.0,0.0,0.0,0.0,-2.7012701902357237e-06,-0.1323607621885381,-9.811162948264451,0.0,0.0,0.0,0.0,0.0,0.0,0.0,0.0,0.0
1710446123.0489624,402,1710446123,48874140,map,0.0007438957849665458,7.67797353532067e-06,5.48893251525441e-07,0.999999723279866,0.0,0.0,0.0,0.0,0.0,0.0,0.0,0.0,0.0,0.003387032835251488,2.2720355205428065e-05,3.771722162487613e-05,0.0,0.0,0.0,0.0,0.0,0.0,0.0,0.0,0.0,0.0005759730907315146,-0.134425351443288,-9.810362010888324,0.0,0.0,0.0,0.0,0.0,0.0,0.0,0.0,0.0
1710446123.0662265,403,1710446123,66111803,map,0.0007613264994135968,7.743107821242945e-06,7.690318692055489e-07,0.9999997101606651,0.0,0.0,0.0,0.0,0.0,0.0,0.0,0.0,0.0,0.003486143542995435,1.3058479973385941e-05,4.404456106957983e-05,0.0,0.0,0.0,0.0,0.0,0.0,0.0,0.0,0.0,5.83857947568597e-05,-0.14179120452817745,-9.811201598149463,0.0,0.0,0.0,0.0,0.0,0.0,0.0,0.0,0.0
1710446123.0825748,404,1710446123,82404613,map,0.0007784106262630259,7.836816140090962e-06,1.016946326392969e-06,0.9999996970071777,0.0,0.0,0.0,0.0,0.0,0.0,0.0,0.0,0.0,0.003416826008372354,1.8777647114715613e-05,4.959474661894953e-05,0.0,0.0,0.0,0.0,0.0,0.0,0.0,0.0,0.0,0.0005603077699911291,-0.1445561715178869,-9.810722898368846,0.0,0.0,0.0,0.0,0.0,0.0,0.0,0.0,0.0
1710446123.0991228,405,1710446123,98993063,map,0.0007946119045300237,7.93223840934016e-06,1.2747822741585107e-06,0.9999996842636381,0.0,0.0,0.0,0.0,0.0,0.0,0.0,0.0,0.0,0.0032402562660624927,1.912214894592414e-05,5.15774044701038e-05,0.0,0.0,0.0,0.0,0.0,0.0,0.0,0.0,0.0,0.00021550319615522412,-0.14983617249977735,-9.811228140841578,0.0,0.0,0.0,0.0,0.0,0.0,0.0,0.0,0.0
1710446123.1166584,406,1710446123,116449833,map,0.0008097216727984931,8.000432227958385e-06,1.571495819045763e-06,0.9999996721421144,0.0,0.0,0.0,0.0,0.0,0.0,0.0,0.0,0.0,0.0030219541686549102,1.3682977588981837e-05,5.935561992420611e-05,0.0,0.0,0.0,0.0,0.0,0.0,0.0,0.0,0.0,0.0002753842676323366,-0.1536666481796719,-9.811481926231107,0.0,0.0,0.0,0.0,0.0,0.0,0.0,0.0,0.0
1710446123.1325235,407,1710446123,132367611,map,0.0008233189736506758,8.09631471035241e-06,1.9049762510806978e-06,0.9999996610382867,0.0,0.0,0.0,0.0,0.0,0.0,0.0,0.0,0.0,0.002719460567251826,1.9227146574649564e-05,6.67020358308889e-05,0.0,0.0,0.0,0.0,0.0,0.0,0.0,0.0,0.0,0.0005877830707196307,-0.15697816927692845,-9.810642804631234,0.0,0.0,0.0,0.0,0.0,0.0,0.0,0.0,0.0
1710446123.1489594,408,1710446123,148802042,map,0.0008353182251900271,8.196651063263088e-06,2.246567706232571e-06,0.9999996510855544,0.0,0.0,0.0,0.0,0.0,0.0,0.0,0.0,0.0,0.002399850611553596,2.0119775785278602e-05,6.832093842640303e-05,0.0,0.0,0.0,0.0,0.0,0.0,0.0,0.0,0.0,0.00015286750694180892,-0.1614833457248949,-9.81073128027162,0.0,0.0,0.0,0.0,0.0,0.0,0.0,0.0,0.0
1710446123.1660051,409,1710446123,165859222,map,0.0008459798989558395,8.262663866591363e-06,2.6373668323467307e-06,0.9999996421213276,0.0,0.0,0.0,0.0,0.0,0.0,0.0,0.0,0.0,0.00213233489062473,1.3263902028884876e-05,7.816611023290627e-05,0.0,0.0,0.0,0.0,0.0,0.0,0.0,0.0,0.0,0.00039195302562633987,-0.16326993636961637,-9.81050776286433,0.0,0.0,0.0,0.0,0.0,0.0,0.0,0.0,0.0
1710446123.1822398,410,1710446123,182044983,map,0.0008551516079665782,8.348005824856224e-06,3.060565334706801e-06,0.9999996343182688,0.0,0.0,0.0,0.0,0.0,0.0,0.0,0.0,0.0,0.0018343418043622608,1.7135940388715765e-05,8.464023416836154e-05,0.0,0.0,0.0,0.0,0.0,0.0,0.0,0.0,0.0,0.000574745180571888,-0.16448998124785724,-9.8096132275739,0.0,0.0,0.0,0.0,0.0,0.0,0.0,0.0,0.0
1710446123.1989717,411,1710446123,198774815,map,0.0008632541087718299,8.427471050842877e-06,3.5198997212885724e-06,0.9999996273543964,0.0,0.0,0.0,0.0,0.0,0.0,0.0,0.0,0.0,0.001620500033916403,1.5967395823780384e-05,9.186665559381217e-05,0.0,0.0,0.0,0.0,0.0,0.0,0.0,0.0,0.0,0.000290134892541569,-0.16419945807215072,-9.809597860752147,0.0,0.0,0.0,0.0,0.0,0.0,0.0,0.0,0.0
1710446123.2154703,412,1710446123,215353251,map,0.000870987805933132,8.508547902566779e-06,4.018215501630453e-06,0.9999996206457783,0.0,0.0,0.0,0.0,0.0,0.0,0.0,0.0,0.0,0.001546739223186114,1.6296736627183524e-05,9.966203473776094e-05,0.0,0.0,0.0,0.0,0.0,0.0,0.0,0.0,0.0,0.0004384793475431748,-0.16498448111074182,-9.80960531133239,0.0,0.0,0.0,0.0,0.0,0.0,0.0,0.0,0.0
1710446123.2321506,413,1710446123,232057333,map,0.000878557590286022,8.590267766696627e-06,4.556834170391267e-06,0.9999996140209271,0.0,0.0,0.0,0.0,0.0,0.0,0.0,0.0,0.0,0.001513956590549991,1.6432535987226622e-05,0.00010772221999661069,0.0,0.0,0.0,0.0,0.0,0.0,0.0,0.0,0.0,0.00045280024333165794,-0.1653144062098549,-9.809615555880224,0.0,0.0,0.0,0.0,0.0,0.0,0.0,0.0,0.0
1710446123.2487242,414,1710446123,248626471,map,0.0008864365733467996,8.67650235867483e-06,5.138048560969514e-06,0.9999996070641829,0.0,0.0,0.0,0.0,0.0,0.0,0.0,0.0,0.0,0.0015757962962818404,1.734278497170114e-05,0.00011624108705238902,0.0,0.0,0.0,0.0,0.0,0.0,0.0,0.0,0.0,0.0004199463546171697,-0.1652477461630967,-9.809085167699173,0.0,0.0,0.0,0.0,0.0,0.0,0.0,0.0,0.0
1710446123.2657175,415,1710446123,265607357,map,0.0008952767337481732,8.76410443430809e-06,5.765034058172001e-06,0.9999995991846822,0.0,0.0,0.0,0.0,0.0,0.0,0.0,0.0,0.0,0.0017680317734733032,1.762360278355284e-05,0.00012539671207176348,0.0,0.0,0.0,0.0,0.0,0.0,0.0,0.0,0.0,0.0004438968448475236,-0.16528391130870024,-9.809634182330832,0.0,0.0,0.0,0.0,0.0,0.0,0.0,0.0,0.0
1710446123.283009,416,1710446123,282830238,map,0.0009050704607573576,8.85249307788202e-06,6.4391393183396005e-06,0.9999995903637321,0.0,0.0,0.0,0.0,0.0,0.0,0.0,0.0,0.0,0.0019587451045472875,1.7788467420204193e-05,0.0001348221741469399,0.0,0.0,0.0,0.0,0.0,0.0,0.0,0.0,0.0,0.0004543587690105302,-0.165952388063763,-9.809249546125786,0.0,0.0,0.0,0.0,0.0,0.0,0.0,0.0,0.0
1710446123.2989697,417,1710446123,298860312,map,0.0009167939942647861,8.949699400666134e-06,7.165386655159181e-06,0.9999995796785778,0.0,0.0,0.0,0.0,0.0,0.0,0.0,0.0,0.0,0.0023447065003865484,1.955934149229909e-05,0.00014525235311609977,0.0,0.0,0.0,0.0,0.0,0.0,0.0,0.0,0.0,0.0005062367209232375,-0.1661978361157564,-9.808712173025757,0.0,0.0,0.0,0.0,0.0,0.0,0.0,0.0,0.0
1710446123.3163528,418,1710446123,316110373,map,0.0009330250709992412,9.058460285179172e-06,7.945423351085161e-06,0.999999564659421,0.0,0.0,0.0,0.0,0.0,0.0,0.0,0.0,0.0,0.003246215479055352,2.187449315806746e-05,0.000156016050495957,0.0,0.0,0.0,0.0,0.0,0.0,0.0,0.0,0.0,0.0004813140377462839,-0.16845560294548212,-9.809670969570783,0.0,0.0,0.0,0.0,0.0,0.0,0.0,0.0,0.0
1710446123.3323138,419,1710446123,332201004,map,0.0009548180005003488,9.17885537192513e-06,8.79348244947827e-06,0.9999995440804007,0.0,0.0,0.0,0.0,0.0,0.0,0.0,0.0,0.0,0.004358586477612804,2.4206362122480736e-05,0.00016962826680461357,0.0,0.0,0.0,0.0,0.0,0.0,0.0,0.0,0.0,0.0005253936271850245,-0.1742198991465011,-9.810172952414657,0.0,0.0,0.0,0.0,0.0,0.0,0.0,0.0,0.0
1710446123.3490074,420,1710446123,348915815,map,0.0009833648734400941,9.338253158257093e-06,9.74735569542007e-06,0.999999516405539,0.0,0.0,0.0,0.0,0.0,0.0,0.0,0.0,0.0,0.005709375769298571,3.201698995418095e-05,0.00019079566332326196,0.0,0.0,0.0,0.0,0.0,0.0,0.0,0.0,0.0,0.0006266424876677981,-0.1826517932033246,-9.810584596973085,0.0,0.0,0.0,0.0,0.0,0.0,0.0,0.0,0.0
1710446123.3655856,421,1710446123,365382195,map,0.0010197535324337644,9.500406277951206e-06,1.0795417614775227e-05,0.999999479947832,0.0,0.0,0.0,0.0,0.0,0.0,0.0,0.0,0.0,0.007277733775673774,3.257349196617867e-05,0.00020964723857526936,0.0,0.0,0.0,0.0,0.0,0.0,0.0,0.0,0.0,0.0005478587350022511,-0.1926308577276778,-9.810709859853421,0.0,0.0,0.0,0.0,0.0,0.0,0.0,0.0,0.0
1710446123.3821287,422,1710446123,381970167,map,0.001062650266784611,9.680535489058967e-06,1.1926987472425725e-05,0.9999994352690629,0.0,0.0,0.0,0.0,0.0,0.0,0.0,0.0,0.0,0.008579349721263124,3.6173785238966244e-05,0.00022635716857176858,0.0,0.0,0.0,0.0,0.0,0.0,0.0,0.0,0.0,0.0008907514089572928,-0.211696724313106,-9.811083320188104,0.0,0.0,0.0,0.0,0.0,0.0,0.0,0.0,0.0
1710446123.3986068,423,1710446123,398516178,map,0.0011105352243649701,9.812281916705003e-06,1.3186288403957844e-05,0.999999383220488,0.0,0.0,0.0,0.0,0.0,0.0,0.0,0.0,0.0,0.009576995015930055,2.651484944306429e-05,0.00025192360918666875,0.0,0.0,0.0,0.0,0.0,0.0,0.0,0.0,0.0,0.0008439903734697025,-0.22829409051843816,-9.811234194438025,0.0,0.0,0.0,0.0,0.0,0.0,0.0,0.0,0.0
1710446123.4151201,424,1710446123,414995193,map,0.0011623390479036468,9.986520521707365e-06,1.4557862080619882e-05,0.9999993243279096,0.0,0.0,0.0,0.0,0.0,0.0,0.0,0.0,0.0,0.01036076912233006,3.503004499810895e-05,0.00027437587025533984,0.0,0.0,0.0,0.0,0.0,0.0,0.0,0.0,0.0,0.00134580763957869,-0.24032232563459444,-9.811448398620012,0.0,0.0,0.0,0.0,0.0,0.0,0.0,0.0,0.0
1710446123.4322662,425,1710446123,432155371,map,0.0012151525590933675,1.0146910491026912e-05,1.6069246790285813e-05,0.9999992615212662,0.0,0.0,0.0,0.0,0.0,0.0,0.0,0.0,0.0,0.010562707105942707,3.2291643433920564e-05,0.0003023434146829215,0.0,0.0,0.0,0.0,0.0,0.0,0.0,0.0,0.0,0.0009417235468226222,-0.25722842343975827,-9.812059346199943,0.0,0.0,0.0,0.0,0.0,0.0,0.0,0.0,0.0
1710446123.4487,426,1710446123,448517799,map,0.001267224665475694,1.0322367445054756e-05,1.772892553354963e-05,0.9999991968600681,0.0,0.0,0.0,0.0,0.0,0.0,0.0,0.0,0.0,0.010414426442099806,3.534478461700546e-05,0.000331996904115757,0.0,0.0,0.0,0.0,0.0,0.0,0.0,0.0,0.0,0.0013993923790104712,-0.273414873591884,-9.812261443189035,0.0,0.0,0.0,0.0,0.0,0.0,0.0,0.0,0.0
1710446123.4657311,427,1710446123,465547562,map,0.0013175943128957022,1.0502641076695503e-05,1.9551523869691086e-05,0.9999991317259526,0.0,0.0,0.0,0.0,0.0,0.0,0.0,0.0,0.0,0.010073934715646854,3.635652383043764e-05,0.0003645760719792615,0.0,0.0,0.0,0.0,0.0,0.0,0.0,0.0,0.0,0.0012486695457387047,-0.2918139168835387,-9.813796262719102,0.0,0.0,0.0,0.0,0.0,0.0,0.0,0.0,0.0
1710446123.4823375,428,1710446123,482065678,map,0.0013638697882579337,1.0676161103836027e-05,2.1548130964198905e-05,0.9999990696400165,0.0,0.0,0.0,0.0,0.0,0.0,0.0,0.0,0.0,0.00925509981518581,3.506777926492263e-05,0.0003993711697464574,0.0,0.0,0.0,0.0,0.0,0.0,0.0,0.0,0.0,0.0014511594081019676,-0.3096854432687791,-9.813443757141352,0.0,0.0,0.0,0.0,0.0,0.0,0.0,0.0,0.0
1710446123.4988787,429,1710446123,498774290,map,0.0014053212649383505,1.085186224948385e-05,2.3720380134433578e-05,0.9999990121953737,0.0,0.0,0.0,0.0,0.0,0.0,0.0,0.0,0.0,0.008290299336591868,3.557222196876449e-05,0.000434488785100659,0.0,0.0,0.0,0.0,0.0,0.0,0.0,0.0,0.0,0.0015787356733672898,-0.32778431785281265,-9.812668896796076,0.0,0.0,0.0,0.0,0.0,0.0,0.0,0.0,0.0
1710446123.5152137,430,1710446123,514986753,map,0.0014423692061428595,1.1025318702847404e-05,2.609474780506345e-05,0.9999989593837484,0.0,0.0,0.0,0.0,0.0,0.0,0.0,0.0,0.0,0.007409591352896313,3.5200556886123e-05,0.0004749036672261499,0.0,0.0,0.0,0.0,0.0,0.0,0.0,0.0,0.0,0.0016371537942643775,-0.34292386143637876,-9.811946656173767,0.0,0.0,0.0,0.0,0.0,0.0,0.0,0.0,0.0
1710446123.5323784,431,1710446123,532091856,map,0.0014741980208444285,1.1185354704277705e-05,2.86795761264517e-05,0.9999989128956916,0.0,0.0,0.0,0.0,0.0,0.0,0.0,0.0,0.0,0.006365764778912992,3.260326701201206e-05,0.0005169883498375503,0.0,0.0,0.0,0.0,0.0,0.0,0.0,0.0,0.0,0.001721942542256577,-0.3546382572307008,-9.811830706518734,0.0,0.0,0.0,0.0,0.0,0.0,0.0,0.0,0.0
1710446123.5487435,432,1710446123,548663378,map,0.001503534707091613,1.1357908774307453e-05,3.1493802561855337e-05,0.999998869130622,0.0,0.0,0.0,0.0,0.0,0.0,0.0,0.0,0.0,0.005867338370669633,3.5188859483564644e-05,0.000562858646634754,0.0,0.0,0.0,0.0,0.0,0.0,0.0,0.0,0.0,0.0019423277352087793,-0.36099101193722655,-9.809850714819145,0.0,0.0,0.0,0.0,0.0,0.0,0.0,0.0,0.0
1710446123.5656438,433,1710446123,565450907,map,0.0015347899130559537,1.1544943781452967e-05,3.457258461255326e-05,0.9999988215449924,0.0,0.0,0.0,0.0,0.0,0.0,0.0,0.0,0.0,0.0062510425010430465,3.815525532575108e-05,0.0006157695773118164,0.0,0.0,0.0,0.0,0.0,0.0,0.0,0.0,0.0,0.0018960865114456993,-0.371531240122888,-9.809745941034478,0.0,0.0,0.0,0.0,0.0,0.0,0.0,0.0,0.0
1710446123.5821836,434,1710446123,582066059,map,0.0015691967063145695,1.1732916412539179e-05,3.7950455689068945e-05,0.9999987680211404,0.0,0.0,0.0,0.0,0.0,0.0,0.0,0.0,0.0,0.006881360343825075,3.84168086957747e-05,0.0006755942130617221,0.0,0.0,0.0,0.0,0.0,0.0,0.0,0.0,0.0,0.0021732689921265774,-0.3830920377307861,-9.809218812482284,0.0,0.0,0.0,0.0,0.0,0.0,0.0,0.0,0.0
1710446123.5986888,435,1710446123,598509789,map,0.0016093478813250348,1.1951684414398963e-05,4.165433295660525e-05,0.9999987040598957,0.0,0.0,0.0,0.0,0.0,0.0,0.0,0.0,0.0,0.008030237988443276,4.464111187237073e-05,0.0007407987946347779,0.0,0.0,0.0,0.0,0.0,0.0,0.0,0.0,0.0,0.0025403974676285386,-0.3899743784440744,-9.808231144938816,0.0,0.0,0.0,0.0,0.0,0.0,0.0,0.0,0.0
1710446123.6151063,436,1710446123,614967823,map,0.0016580671980582788,1.2196716611339541e-05,4.572694047480149e-05,0.9999986242857806,0.0,0.0,0.0,0.0,0.0,0.0,0.0,0.0,0.0,0.00974386850296805,4.995122559922555e-05,0.0008145562672040859,0.0,0.0,0.0,0.0,0.0,0.0,0.0,0.0,0.0,0.002628950230319518,-0.4027898039245931,-9.80770401638662,0.0,0.0,0.0,0.0,0.0,0.0,0.0,0.0,0.0
1710446123.6321244,437,1710446123,631941080,map,0.0017143116754713271,1.246219570184305e-05,5.0201732262780606e-05,0.999998529228898,0.0,0.0,0.0,0.0,0.0,0.0,0.0,0.0,0.0,0.011248902805714276,5.411583961232136e-05,0.0008950041165765816,0.0,0.0,0.0,0.0,0.0,0.0,0.0,0.0,0.0,0.0029889183964830644,-0.41882754351459006,-9.807736612675184,0.0,0.0,0.0,0.0,0.0,0.0,0.0,0.0,0.0
1710446123.6486614,438,1710446123,648566008,map,0.0017780700374996079,1.276316308099657e-05,5.5103734888869136e-05,0.999998417632559,0.0,0.0,0.0,0.0,0.0,0.0,0.0,0.0,0.0,0.012751682425220602,6.129673365928029e-05,0.000980452021011897,0.0,0.0,0.0,0.0,0.0,0.0,0.0,0.0,0.0,0.0033265853130818946,-0.4374567953657391,-9.80744929967456,0.0,0.0,0.0,0.0,0.0,0.0,0.0,0.0,0.0
1710446123.6654305,439,1710446123,665317535,map,0.0018495806962585508,1.3103867869526361e-05,6.047400623748304e-05,0.9999982876097495,0.0,0.0,0.0,0.0,0.0,0.0,0.0,0.0,0.0,0.014302145044989462,6.933963521557152e-05,0.001074110428391505,0.0,0.0,0.0,0.0,0.0,0.0,0.0,0.0,0.0,0.003439013376374501,-0.45976391992488885,-9.806839283417162,0.0,0.0,0.0,0.0,0.0,0.0,0.0,0.0,0.0
1710446123.682498,440,1710446123,682320833,map,0.001925710686663345,1.346361546267657e-05,6.634701613699619e-05,0.9999981435258547,0.0,0.0,0.0,0.0,0.0,0.0,0.0,0.0,0.0,0.015226013850823571,7.32909444375273e-05,0.0011746625779842045,0.0,0.0,0.0,0.0,0.0,0.0,0.0,0.0,0.0,0.003765469407064416,-0.4834965463941229,-9.807318914520307,0.0,0.0,0.0,0.0,0.0,0.0,0.0,0.0,0.0
1710446123.6989405,441,1710446123,698797941,map,0.002006817749064546,1.3865807944524777e-05,7.276258618778487e-05,0.9999979835959009,0.0,0.0,0.0,0.0,0.0,0.0,0.0,0.0,0.0,0.016221431515293414,8.193751632235844e-05,0.0012831706063630695,0.0,0.0,0.0,0.0,0.0,0.0,0.0,0.0,0.0,0.004169904202381915,-0.5041481251022272,-9.807622991326477,0.0,0.0,0.0,0.0,0.0,0.0,0.0,0.0,0.0
1710446123.7156568,442,1710446123,715539217,map,0.002093721202610765,1.4318410795875202e-05,7.980847376427054e-05,0.999997804876149,0.0,0.0,0.0,0.0,0.0,0.0,0.0,0.0,0.0,0.01738071381407717,9.220664915214441e-05,0.001409228605926657,0.0,0.0,0.0,0.0,0.0,0.0,0.0,0.0,0.0,0.004345469214342498,-0.5341951256033951,-9.808148257233611,0.0,0.0,0.0,0.0,0.0,0.0,0.0,0.0,0.0
1710446123.732331,443,1710446123,732227087,map,0.0021820887912071085,1.4775892843031035e-05,8.7520420447932e-05,0.9999976153023348,0.0,0.0,0.0,0.0,0.0,0.0,0.0,0.0,0.0,0.017673542827084332,9.345189070621806e-05,0.001542442213538412,0.0,0.0,0.0,0.0,0.0,0.0,0.0,0.0,0.0,0.004934094214215169,-0.5632278431094065,-9.809189010161312,0.0,0.0,0.0,0.0,0.0,0.0,0.0,0.0,0.0
1710446123.7487454,444,1710446123,748636484,map,0.0022686869913618626,1.5265418137874094e-05,9.592775739659542e-05,0.9999974218087603,0.0,0.0,0.0,0.0,0.0,0.0,0.0,0.0,0.0,0.017319666076181548,0.00010020430177289078,0.0016815003712823398,0.0,0.0,0.0,0.0,0.0,0.0,0.0,0.0,0.0,0.005658161272329549,-0.5753502573069529,-9.808609261886149,0.0,0.0,0.0,0.0,0.0,0.0,0.0,0.0,0.0
1710446123.7651763,445,1710446123,765047789,map,0.0023513288044235353,1.6888464036253546e-05,0.00010483039261021989,0.9999972299852745,0.0,0.0,0.0,0.0,0.0,0.0,0.0,0.0,0.0,0.016528408102382687,0.0003272099634050674,0.001780014972973586,0.0,0.0,0.0,0.0,0.0,0.0,0.0,0.0,0.0,0.005814775200932836,-0.5734137212621516,-9.808929171175334,0.0,0.0,0.0,0.0,0.0,0.0,0.0,0.0,0.0
1710446123.7825181,446,1710446123,782357216,map,0.0024252162176060742,1.730922542433809e-05,0.00011460056349893994,0.9999970524423557,0.0,0.0,0.0,0.0,0.0,0.0,0.0,0.0,0.0,0.014777500176882239,8.734247390277414e-05,0.001954077738577249,0.0,0.0,0.0,0.0,0.0,0.0,0.0,0.0,0.0,0.0018113516652228743,-0.5620189609991229,-9.808617178127658,0.0,0.0,0.0,0.0,0.0,0.0,0.0,0.0,0.0
1710446123.799078,447,1710446123,798991680,map,0.002489000691962983,1.801979038608193e-05,0.00012520152755458394,0.9999968944328879,0.0,0.0,0.0,0.0,0.0,0.0,0.0,0.0,0.0,0.012756911960945614,0.0001459283263259072,0.0021200570369472632,0.0,0.0,0.0,0.0,0.0,0.0,0.0,0.0,0.0,0.01309904650126136,-0.5539998410930933,-9.807928930777706,0.0,0.0,0.0,0.0,0.0,0.0,0.0,0.0,0.0
1710446123.8161564,448,1710446123,816028833,map,0.0025428386966400126,1.867689021084742e-05,0.00013669274478738321,0.9999967574635581,0.0,0.0,0.0,0.0,0.0,0.0,0.0,0.0,0.0,0.010767609163537983,0.00013591598527889587,0.002298099350423187,0.0,0.0,0.0,0.0,0.0,0.0,0.0,0.0,0.0,0.004957320604588757,-0.5207568654477595,-9.807733353046327,0.0,0.0,0.0,0.0,0.0,0.0,0.0,0.0,0.0
1710446123.832964,449,1710446123,832763195,map,0.0025828221259104845,1.924671694035576e-05,0.00014907508039515614,0.9999966532124246,0.0,0.0,0.0,0.0,0.0,0.0,0.0,0.0,0.0,0.007996680794855415,0.00011926854494806695,0.0024763167326072354,0.0,0.0,0.0,0.0,0.0,0.0,0.0,0.0,0.0,0.0072655686511215595,-0.4621349943276637,-9.807194117301236,0.0,0.0,0.0,0.0,0.0,0.0,0.0,0.0,0.0
1710446123.8492959,450,1710446123,849200726,map,0.0026034864777400037,1.9827554288537603e-05,0.00016221257499243787,0.9999965975702662,0.0,0.0,0.0,0.0,0.0,0.0,0.0,0.0,0.0,0.004132850416641281,0.00012239183997786847,0.0026272687605238105,0.0,0.0,0.0,0.0,0.0,0.0,0.0,0.0,0.0,0.007901028902667046,-0.3889593314734046,-9.80522856110087,0.0,0.0,0.0,0.0,0.0,0.0,0.0,0.0,0.0
1710446123.865944,451,1710446123,865803003,map,0.0025619867022037986,1.998762508668981e-05,0.00017617333227615427,0.9999967023883577,0.0,0.0,0.0,0.0,0.0,0.0,0.0,0.0,0.0,-0.008300032182896428,4.0513456757117666e-05,0.00279189232364935,0.0,0.0,0.0,0.0,0.0,0.0,0.0,0.0,0.0,0.007961417244789978,-0.2937049800144006,-9.803315624623469,0.0,0.0,0.0,0.0,0.0,0.0,0.0,0.0,0.0
1710446123.8827772,452,1710446123,882544279,map,0.0023994185596874396,1.9623536454071474e-05,0.00019089215943885092,0.9999971029786415,0.0,0.0,0.0,0.0,0.0,0.0,0.0,0.0,0.0,-0.032513797478120166,-6.0027650588438455e-05,0.002943268578674825,0.0,0.0,0.0,0.0,0.0,0.0,0.0,0.0,0.0,0.00842235413997603,-0.2890489348871674,-9.793719277270434,0.0,0.0,0.0,0.0,0.0,0.0,0.0,0.0,0.0
1710446123.8995016,453,1710446123,899369240,map,0.0021046960720483457,1.7803949710424654e-05,0.0002065345943565965,0.9999977636379619,0.0,0.0,0.0,0.0,0.0,0.0,0.0,0.0,0.0,-0.058944770112744765,-0.0003460822263020263,0.0031280673251660495,0.0,0.0,0.0,0.0,0.0,0.0,0.0,0.0,0.0,0.002266838754727917,-0.3169060796152707,-9.780528956272661,0.0,0.0,0.0,0.0,0.0,0.0,0.0,0.0,0.0
1710446123.9161427,454,1710446123,916019678,map,0.0016972795549581973,1.4958253275581324e-05,0.00022286330029075804,0.9999985346740826,0.0,0.0,0.0,0.0,0.0,0.0,0.0,0.0,0.0,-0.08148361478003048,-0.0005467686037798023,0.00326522668266032,0.0,0.0,0.0,0.0,0.0,0.0,0.0,0.0,0.0,0.012751024163745127,-0.15273356259389623,-9.774133098795277,0.0,0.0,0.0,0.0,0.0,0.0,0.0,0.0,0.0
1710446123.9321122,455,1710446123,931987286,map,0.0012136177790881878,1.0653461238652072e-05,0.00024017923169239382,0.9999992346658706,0.0,0.0,0.0,0.0,0.0,0.0,0.0,0.0,0.0,-0.09673268405151376,-0.0008351980612257284,0.0034627607956588826,0.0,0.0,0.0,0.0,0.0,0.0,0.0,0.0,0.0,0.012264007963971788,0.0432341891993362,-9.77542810277377,0.0,0.0,0.0,0.0,0.0,0.0,0.0,0.0,0.0
1710446123.9491959,456,1710446123,949082613,map,0.0007193089003123407,6.403773533437807e-06,0.0002582157782078977,0.9999997079391122,0.0,0.0,0.0,0.0,0.0,0.0,0.0,0.0,0.0,-0.09886204672506667,-0.000823598465133306,0.0036068554151853158,0.0,0.0,0.0,0.0,0.0,0.0,0.0,0.0,0.0,0.01392289336571668,0.19409510411021735,-9.779456072717663,0.0,0.0,0.0,0.0,0.0,0.0,0.0,0.0,0.0
1710446123.9659162,457,1710446123,965773344,map,0.00027544799289079644,1.9156552442027704e-06,0.00027718537533139373,0.9999999236464977,0.0,0.0,0.0,0.0,0.0,0.0,0.0,0.0,0.0,-0.0887724290256836,-0.0008736562142699219,0.0037935969596237774,0.0,0.0,0.0,0.0,0.0,0.0,0.0,0.0,0.0,0.0036261745873404456,0.40998844869024037,-9.789989796197526,0.0,0.0,0.0,0.0,0.0,0.0,0.0,0.0,0.0
1710446123.9842482,458,1710446123,984052658,map,-7.696449852698506e-05,-1.890224690163568e-06,0.00029717976947587517,0.9999999528785377,0.0,0.0,0.0,0.0,0.0,0.0,0.0,0.0,0.0,-0.07048269979910546,-0.0007419469777085254,0.003998690323737566,0.0,0.0,0.0,0.0,0.0,0.0,0.0,0.0,0.0,0.008296981239207937,0.6063884942086291,-9.802354034110852,0.0,0.0,0.0,0.0,0.0,0.0,0.0,0.0,0.0
1710446124.000636,459,1710446124,452518,map,-0.0002886429506601654,-4.457600090678428e-06,0.0003183575840046531,0.9999999076569086,0.0,0.0,0.0,0.0,0.0,0.0,0.0,0.0,0.0,-0.042335823408272424,-0.0005021163284503488,0.004235499706257545,0.0,0.0,0.0,0.0,0.0,0.0,0.0,0.0,0.0,0.0043149441009121435,0.7076335269126017,-9.811623021594459,0.0,0.0,0.0,0.0,0.0,0.0,0.0,0.0,0.0
1710446124.0169868,460,1710446124,16831875,map,-0.0003289096276493137,-5.544069068513066e-06,0.00034088239132354907,0.9999998877934514,0.0,0.0,0.0,0.0,0.0,0.0,0.0,0.0,0.0,-0.00805338003079541,-0.0002162116778464088,0.004504926788601595,0.0,0.0,0.0,0.0,0.0,0.0,0.0,0.0,0.0,0.003130065316814097,0.8190657729074784,-9.826831518515565,0.0,0.0,0.0,0.0,0.0,0.0,0.0,0.0,0.0
1710446124.0337121,461,1710446124,33559322,map,-0.00019932167583904155,-5.317048399100422e-06,0.0003647536842088506,0.9999999135986705,0.0,0.0,0.0,0.0,0.0,0.0,0.0,0.0,0.0,0.025917630327445196,3.561767768667626e-05,0.004774122951904573,0.0,0.0,0.0,0.0,0.0,0.0,0.0,0.0,0.0,0.004776556011665106,0.8527046770435399,-9.84195107413502,0.0,0.0,0.0,0.0,0.0,0.0,0.0,0.0,0.0
1710446124.0500062,462,1710446124,49866915,map,0.0001041181486794484,-3.3582222014646944e-06,0.0003901702964219983,0.9999999184576334,0.0,0.0,0.0,0.0,0.0,0.0,0.0,0.0,0.0,0.06068812132348174,0.00037015823082221176,0.0050829649689458365,0.0,0.0,0.0,0.0,0.0,0.0,0.0,0.0,0.0,0.008074447649341933,0.7500623404018774,-9.850362779229412,0.0,0.0,0.0,0.0,0.0,0.0,0.0,0.0,0.0
1710446124.0683496,463,1710446124,68196535,map,0.0005697272995747118,-4.273097355584475e-07,0.00041705954059462224,0.9999997507359495,0.0,0.0,0.0,0.0,0.0,0.0,0.0,0.0,0.0,0.09312206138228221,0.0005529126464725395,0.005377230869696207,0.0,0.0,0.0,0.0,0.0,0.0,0.0,0.0,0.0,0.0056460631459594865,0.6553798428043984,-9.862092786499549,0.0,0.0,0.0,0.0,0.0,0.0,0.0,0.0,0.0
1710446124.0831728,464,1710446124,83000183,map,0.0011610277706906598,3.174073038612026e-06,0.0004457129670852648,0.9999992266718969,0.0,0.0,0.0,0.0,0.0,0.0,0.0,0.0,0.0,0.11826041483449536,0.0006776079585933362,0.005729867019490011,0.0,0.0,0.0,0.0,0.0,0.0,0.0,0.0,0.0,0.011812530069030281,0.468034158582108,-9.871619284662806,0.0,0.0,0.0,0.0,0.0,0.0,0.0,0.0,0.0
1710446124.099952,465,1710446124,99845648,map,0.001841832022081159,1.188126270308315e-05,0.0004767191602229774,0.9999981901246024,0.0,0.0,0.0,0.0,0.0,0.0,0.0,0.0,0.0,0.13616170031491803,0.0016921688405692756,0.006198585954041131,0.0,0.0,0.0,0.0,0.0,0.0,0.0,0.0,0.0,0.0189058883508177,0.14686064453630907,-9.874145497026461,0.0,0.0,0.0,0.0,0.0,0.0,0.0,0.0,0.0
1710446124.1167836,466,1710446124,116662025,map,0.0025614429784157674,1.945900252859734e-05,0.000509693779220047,0.9999965894159175,0.0,0.0,0.0,0.0,0.0,0.0,0.0,0.0,0.0,0.14392312881681785,0.0014638300575009965,0.006592931387229904,0.0,0.0,0.0,0.0,0.0,0.0,0.0,0.0,0.0,-0.004238098339255478,-0.1142612545962222,-9.874687061077879,0.0,0.0,0.0,0.0,0.0,0.0,0.0,0.0,0.0
1710446124.133673,467,1710446124,133527517,map,0.0032445380929027605,3.000696448613041e-05,0.0005439005716644338,0.9999945881075127,0.0,0.0,0.0,0.0,0.0,0.0,0.0,0.0,0.0,0.13662046452787774,0.002062153985755689,0.006837386970920441,0.0,0.0,0.0,0.0,0.0,0.0,0.0,0.0,0.0,0.02976173795625345,-0.4291854944187587,-9.869589001546577,0.0,0.0,0.0,0.0,0.0,0.0,0.0,0.0,0.0
1710446124.1499147,468,1710446124,149832010,map,0.0038467908748165357,4.108922688793508e-05,0.0005813466039041287,0.9999924312452405,0.0,0.0,0.0,0.0,0.0,0.0,0.0,0.0,0.0,0.12045221072456375,0.0021797473452332765,0.007484512114671514,0.0,0.0,0.0,0.0,0.0,0.0,0.0,0.0,0.0,0.012681001715234166,-0.809615814176708,-9.853037071875399,0.0,0.0,0.0,0.0,0.0,0.0,0.0,0.0,0.0
1710446124.1669211,469,1710446124,166785002,map,0.004344582918182629,5.0599650982321496e-05,0.0006221785377094163,0.9999903674200116,0.0,0.0,0.0,0.0,0.0,0.0,0.0,0.0,0.0,0.09955994066626793,0.0018796872986082543,0.008162404072981265,0.0,0.0,0.0,0.0,0.0,0.0,0.0,0.0,0.0,0.03362517326782741,-0.9838820338861702,-9.838034862894771,0.0,0.0,0.0,0.0,0.0,0.0,0.0,0.0,0.0
1710446124.1834497,470,1710446124,183269024,map,0.004700795344785657,4.91421906898106e-05,0.0006663243570161035,0.9999887279964824,0.0,0.0,0.0,0.0,0.0,0.0,0.0,0.0,0.0,0.07124261005673269,-0.0002942923111897864,0.008834259466969044,0.0,0.0,0.0,0.0,0.0,0.0,0.0,0.0,0.0,0.04564710626812077,-1.1876887556119458,-9.823505300098313,0.0,0.0,0.0,0.0,0.0,0.0,0.0,0.0,0.0
1710446124.2006207,471,1710446124,199932098,map,0.004919577589367038,5.065190476439183e-05,0.0007137945793255626,0.999987642767662,0.0,0.0,0.0,0.0,0.0,0.0,0.0,0.0,0.0,0.04375669584540101,0.00031950095080627655,0.00949474331353453,0.0,0.0,0.0,0.0,0.0,0.0,0.0,0.0,0.0,0.11170380745750695,-1.4176876702210204,-9.801211301366076,0.0,0.0,0.0,0.0,0.0,0.0,0.0,0.0,0.0
1710446124.2175953,472,1710446124,217004538,map,0.004997324377431532,5.683902621773591e-05,0.0007627162540568254,0.9999872208095,0.0,0.0,0.0,0.0,0.0,0.0,0.0,0.0,0.0,0.015549905992612604,0.00127520933021236,0.009778875163740049,0.0,0.0,0.0,0.0,0.0,0.0,0.0,0.0,0.0,0.009802171678612819,-1.477728214765304,-9.785136208830451,0.0,0.0,0.0,0.0,0.0,0.0,0.0,0.0,0.0
1710446124.2335968,473,1710446124,233412981,map,0.004923355148109936,5.899206383586143e-05,0.0008145063703326615,0.9999875467591558,0.0,0.0,0.0,0.0,0.0,0.0,0.0,0.0,0.0,-0.014794268446628575,0.0004928782615685935,0.010354884905180732,0.0,0.0,0.0,0.0,0.0,0.0,0.0,0.0,0.0,0.010212896737940975,-1.5241080622263148,-9.764579592278638,0.0,0.0,0.0,0.0,0.0,0.0,0.0,0.0,0.0
1710446124.2506547,474,1710446124,250527620,map,0.004707385059764041,5.9404114697189784e-05,0.0008700997947965695,0.9999885398960318,0.0,0.0,0.0,0.0,0.0,0.0,0.0,0.0,0.0,-0.043195056313567945,0.00016991980357588358,0.0111154677705105,0.0,0.0,0.0,0.0,0.0,0.0,0.0,0.0,0.0,0.072825544699989,-1.5650742409575857,-9.740217126206426,0.0,0.0,0.0,0.0,0.0,0.0,0.0,0.0,0.0
1710446124.2684276,475,1710446124,268279552,map,0.004385248453950186,5.873997473815667e-05,0.0009298960960890316,0.9999899506689369,0.0,0.0,0.0,0.0,0.0,0.0,0.0,0.0,0.0,-0.06442873680660721,-2.4339633074702563e-05,0.011955668512632269,0.0,0.0,0.0,0.0,0.0,0.0,0.0,0.0,0.0,0.05778836132964044,-1.5621222741353689,-9.72275203479421,0.0,0.0,0.0,0.0,0.0,0.0,0.0,0.0,0.0
1710446124.2827878,476,1710446124,282682657,map,0.004011836309956427,6.28185216624619e-05,0.0009917589910700979,0.9999914587822034,0.0,0.0,0.0,0.0,0.0,0.0,0.0,0.0,0.0,-0.07468302888984113,0.0009347701551682894,0.012364560177428437,0.0,0.0,0.0,0.0,0.0,0.0,0.0,0.0,0.0,0.05103192173456493,-1.48018394129292,-9.713595271675514,0.0,0.0,0.0,0.0,0.0,0.0,0.0,0.0,0.0
1710446124.2990203,477,1710446124,298907042,map,0.003641564455551092,5.9043181871015315e-05,0.00106242091182033,0.9999928033661166,0.0,0.0,0.0,0.0,0.0,0.0,0.0,0.0,0.0,-0.07405641119314689,-0.0006301696845506137,0.014130141604576736,0.0,0.0,0.0,0.0,0.0,0.0,0.0,0.0,0.0,0.015373081575631829,-1.3212994263053213,-9.712359872338965,0.0,0.0,0.0,0.0,0.0,0.0,0.0,0.0,0.0
1710446124.3153162,478,1710446124,315130949,map,0.003328141052280921,5.632349005146346e-05,0.0011404741868510978,0.9999938097925556,0.0,0.0,0.0,0.0,0.0,0.0,0.0,0.0,0.0,-0.06268643014160077,-0.000425393832224184,0.015608475946361892,0.0,0.0,0.0,0.0,0.0,0.0,0.0,0.0,0.0,0.13197900180560154,-1.112453484805182,-9.717014156684538,0.0,0.0,0.0,0.0,0.0,0.0,0.0,0.0,0.0
1710446124.3329387,479,1710446124,332805634,map,0.003087912192833863,5.90489809919048e-05,0.0012257595655334216,0.9999944793972588,0.0,0.0,0.0,0.0,0.0,0.0,0.0,0.0,0.0,-0.04804631550279197,0.0006525540707608022,0.01705245442394167,0.0,0.0,0.0,0.0,0.0,0.0,0.0,0.0,0.0,0.04754370309133506,-1.0336613286363634,-9.728894106882066,0.0,0.0,0.0,0.0,0.0,0.0,0.0,0.0,0.0
1710446124.3500688,480,1710446124,349967957,map,0.002904739328531528,5.579239774530171e-05,0.0013206467709274635,0.9999949076214079,0.0,0.0,0.0,0.0,0.0,0.0,0.0,0.0,0.0,-0.036636502096432495,-0.0005512885233918091,0.018976978666879075,0.0,0.0,0.0,0.0,0.0,0.0,0.0,0.0,0.0,0.03144189473275991,-0.838977273984029,-9.74018872086925,0.0,0.0,0.0,0.0,0.0,0.0,0.0,0.0,0.0
1710446124.3661895,481,1710446124,365932941,map,0.002733417069220246,5.383202063187991e-05,0.0014230135079090539,0.9999952502716178,0.0,0.0,0.0,0.0,0.0,0.0,0.0,0.0,0.0,-0.03426610706078231,-0.0002908638155468805,0.020472330317670675,0.0,0.0,0.0,0.0,0.0,0.0,0.0,0.0,0.0,0.09362225419924598,-0.5727706030371592,-9.751994165264348,0.0,0.0,0.0,0.0,0.0,0.0,0.0,0.0,0.0
1710446124.3825803,482,1710446124,382410049,map,0.0025493280081738514,5.512967830833771e-05,0.001536718396075791,0.9999955681821778,0.0,0.0,0.0,0.0,0.0,0.0,0.0,0.0,0.0,-0.03681870850649,0.00036989376132293573,0.02273815628589922,0.0,0.0,0.0,0.0,0.0,0.0,0.0,0.0,0.0,0.02852394028228968,-0.33358156959278507,-9.76223359082461,0.0,0.0,0.0,0.0,0.0,0.0,0.0,0.0,0.0
1710446124.3996155,483,1710446124,399473190,map,0.002348348571743589,4.8653744372162016e-05,0.0016628330860334684,0.9999958589303891,0.0,0.0,0.0,0.0,0.0,0.0,0.0,0.0,0.0,-0.04019909076308366,-0.0011741828106543106,0.0252235872894654,0.0,0.0,0.0,0.0,0.0,0.0,0.0,0.0,0.0,0.009878081968169724,-0.28509831564499616,-9.779291228629786,0.0,0.0,0.0,0.0,0.0,0.0,0.0,0.0,0.0
1710446124.416159,484,1710446124,415941477,map,0.002134248707496594,4.4425107382910136e-05,0.0017954061824559807,0.9999961097551853,0.0,0.0,0.0,0.0,0.0,0.0,0.0,0.0,0.0,-0.04282251519918574,-0.0007179353415998814,0.026514175746991202,0.0,0.0,0.0,0.0,0.0,0.0,0.0,0.0,0.0,0.027651094620477337,-0.20154555884299474,-9.802231565198106,0.0,0.0,0.0,0.0,0.0,0.0,0.0,0.0,0.0
1710446124.432673,485,1710446124,432553530,map,0.001925349292518091,4.019283124574903e-05,0.00193452666185493,0.9999962745036768,0.0,0.0,0.0,0.0,0.0,0.0,0.0,0.0,0.0,-0.041782447443295644,-0.0007178707375733733,0.027823729674463626,0.0,0.0,0.0,0.0,0.0,0.0,0.0,0.0,0.0,0.0389188935218951,-0.06021733575399581,-9.825162122879858,0.0,0.0,0.0,0.0,0.0,0.0,0.0,0.0,0.0
1710446124.4493983,486,1710446124,449286461,map,0.0017417819599160969,3.934853812772954e-05,0.0020800355501250623,0.9999963190429287,0.0,0.0,0.0,0.0,0.0,0.0,0.0,0.0,0.0,-0.036714836974556256,-4.7146186309726136e-05,0.029100493434848832,0.0,0.0,0.0,0.0,0.0,0.0,0.0,0.0,0.0,0.057415956008762,0.0667438985277537,-9.84884099821477,0.0,0.0,0.0,0.0,0.0,0.0,0.0,0.0,0.0
1710446124.4665022,487,1710446124,466291428,map,0.0016002692934563043,3.683610853030366e-05,0.002232852482922373,0.9999962260684182,0.0,0.0,0.0,0.0,0.0,0.0,0.0,0.0,0.0,-0.028304584644791013,-0.0003947036837264532,0.0305630188580692,0.0,0.0,0.0,0.0,0.0,0.0,0.0,0.0,0.0,0.041804511799274385,0.145219405036243,-9.869314261400115,0.0,0.0,0.0,0.0,0.0,0.0,0.0,0.0,0.0
1710446124.4826934,488,1710446124,482525110,map,0.0015057624232544637,3.6600571785527666e-05,0.0023927319742498964,0.9999960030788235,0.0,0.0,0.0,0.0,0.0,0.0,0.0,0.0,0.0,-0.018902521574415822,4.324643521015649e-05,0.031975260668967456,0.0,0.0,0.0,0.0,0.0,0.0,0.0,0.0,0.0,0.06042564402317218,0.21038522119201133,-9.884206574322157,0.0,0.0,0.0,0.0,0.0,0.0,0.0,0.0,0.0
1710446124.4990149,489,1710446124,498838425,map,0.0014383681724235806,3.836790872501296e-05,0.0025588391495010698,0.9999956909742717,0.0,0.0,0.0,0.0,0.0,0.0,0.0,0.0,0.0,-0.013479144674228363,0.00043350421441889846,0.03322045549636485,0.0,0.0,0.0,0.0,0.0,0.0,0.0,0.0,0.0,0.044994773952742366,0.3093141857301598,-9.891111399562394,0.0,0.0,0.0,0.0,0.0,0.0,0.0,0.0,0.0
1710446124.5157583,490,1710446124,515557051,map,0.0013832488275042519,3.651144217554399e-05,0.002731601693831209,0.9999953118099015,0.0,0.0,0.0,0.0,0.0,0.0,0.0,0.0,0.0,-0.011025937349053036,-0.00029528614543151673,0.03455264906158148,0.0,0.0,0.0,0.0,0.0,0.0,0.0,0.0,0.0,0.040987604606437654,0.46043688048861836,-9.888938158437753,0.0,0.0,0.0,0.0,0.0,0.0,0.0,0.0,0.0
1710446124.533045,491,1710446124,532901049,map,0.0013445989702578398,3.515502979944891e-05,0.0029107058202853956,0.999994859291467,0.0,0.0,0.0,0.0,0.0,0.0,0.0,0.0,0.0,-0.0077318228732791506,-0.00020199839241958343,0.03582099000400519,0.0,0.0,0.0,0.0,0.0,0.0,0.0,0.0,0.0,0.06481740762408272,0.5212409203329246,-9.882368143647188,0.0,0.0,0.0,0.0,0.0,0.0,0.0,0.0,0.0
1710446124.5494502,492,1710446124,549354792,map,0.0013113097260208173,3.383207018843081e-05,0.0030960512618814617,0.9999943468784097,0.0,0.0,0.0,0.0,0.0,0.0,0.0,0.0,0.0,-0.006659713814119981,-0.00019659922036777925,0.03706931145405865,0.0,0.0,0.0,0.0,0.0,0.0,0.0,0.0,0.0,0.050034787715943135,0.4535651244741666,-9.873786006529736,0.0,0.0,0.0,0.0,0.0,0.0,0.0,0.0,0.0
1710446124.5668063,493,1710446124,566702366,map,0.0012702682483120298,3.238884874890454e-05,0.00328748545388044,0.9999937888851762,0.0,0.0,0.0,0.0,0.0,0.0,0.0,0.0,0.0,-0.008210250851772797,-0.00021459140913529108,0.03828705973009555,0.0,0.0,0.0,0.0,0.0,0.0,0.0,0.0,0.0,0.048533252961896686,0.4853404631408736,-9.859760289222212,0.0,0.0,0.0,0.0,0.0,0.0,0.0,0.0,0.0
1710446124.583204,494,1710446124,582933903,map,0.0012114048592538785,3.049930240084752e-05,0.0034847452135175357,0.9999931940362676,0.0,0.0,0.0,0.0,0.0,0.0,0.0,0.0,0.0,-0.011774916493528681,-0.00029140873693090855,0.039452179908616526,0.0,0.0,0.0,0.0,0.0,0.0,0.0,0.0,0.0,0.047242776902560964,0.5210904753644818,-9.841248391285848,0.0,0.0,0.0,0.0,0.0,0.0,0.0,0.0,0.0
1710446124.599504,495,1710446124,599296093,map,0.0011267923009777507,2.865058243906258e-05,0.0036873706310555027,0.9999925663804126,0.0,0.0,0.0,0.0,0.0,0.0,0.0,0.0,0.0,-0.016924715513268834,-0.0002651041126597342,0.040525154912750085,0.0,0.0,0.0,0.0,0.0,0.0,0.0,0.0,0.0,0.04823722609295065,0.5660691262506643,-9.82208922419087,0.0,0.0,0.0,0.0,0.0,0.0,0.0,0.0,0.0
1710446124.6161466,496,1710446124,615944147,map,0.001019284189426456,2.7071133227216963e-05,0.003895336759622202,0.9999918933063529,0.0,0.0,0.0,0.0,0.0,0.0,0.0,0.0,0.0,-0.021503627384146455,-0.0001942042816308889,0.0415931324678305,0.0,0.0,0.0,0.0,0.0,0.0,0.0,0.0,0.0,0.041879090361277474,0.6110374525534826,-9.802876506050396,0.0,0.0,0.0,0.0,0.0,0.0,0.0,0.0,0.0
1710446124.6328723,497,1710446124,632764339,map,0.0009066200913843302,2.583305230606274e-05,0.00410910378657307,0.999991146280173,0.0,0.0,0.0,0.0,0.0,0.0,0.0,0.0,0.0,-0.022534581267400627,-0.00012107648032665394,0.042753270142380236,0.0,0.0,0.0,0.0,0.0,0.0,0.0,0.0,0.0,0.041188632939306295,0.6581167523386382,-9.786663577780274,0.0,0.0,0.0,0.0,0.0,0.0,0.0,0.0,0.0
1710446124.6497405,498,1710446124,649649620,map,0.0008173696804643446,2.56210045079805e-05,0.004328495414317344,0.9999902976418411,0.0,0.0,0.0,0.0,0.0,0.0,0.0,0.0,0.0,-0.017851093152532152,6.680764336001327e-05,0.04387821830802547,0.0,0.0,0.0,0.0,0.0,0.0,0.0,0.0,0.0,0.041954577508444474,0.6913885553266701,-9.77627234664756,0.0,0.0,0.0,0.0,0.0,0.0,0.0,0.0,0.0
1710446124.665986,499,1710446124,665865421,map,0.0007879101119894262,2.6996496154736853e-05,0.004554073545891404,0.9999893193844539,0.0,0.0,0.0,0.0,0.0,0.0,0.0,0.0,0.0,-0.0058917377348766155,0.0003361508997458906,0.04511566995441587,0.0,0.0,0.0,0.0,0.0,0.0,0.0,0.0,0.0,0.04285728915585508,0.6988649506660993,-9.770440404962319,0.0,0.0,0.0,0.0,0.0,0.0,0.0,0.0,0.0
1710446124.682789,500,1710446124,682596684,map,0.0008432381757409564,3.5440960500484324e-05,0.004787003202380186,0.9999881860770444,0.0,0.0,0.0,0.0,0.0,0.0,0.0,0.0,0.0,0.0110717163455778,0.0016777718083711961,0.0465853416165982,0.0,0.0,0.0,0.0,0.0,0.0,0.0,0.0,0.0,0.052850320789680015,0.6821538376017979,-9.771175684100054,0.0,0.0,0.0,0.0,0.0,0.0,0.0,0.0,0.0
1710446124.6991024,501,1710446124,698954105,map,0.000981923264819435,4.639425946567106e-05,0.0050231408289856255,0.9999869007794486,0.0,0.0,0.0,0.0,0.0,0.0,0.0,0.0,0.0,0.027745223780225665,0.0021042415855853738,0.047227042684759836,0.0,0.0,0.0,0.0,0.0,0.0,0.0,0.0,0.0,0.030276892556521093,0.6283843824196574,-9.776102380285765,0.0,0.0,0.0,0.0,0.0,0.0,0.0,0.0,0.0
1710446124.7159126,502,1710446124,715775728,map,0.0011966303497119325,6.0359338756322516e-05,0.005261738541534879,0.9999854391640295,0.0,0.0,0.0,0.0,0.0,0.0,0.0,0.0,0.0,0.04295233031894306,0.0026343973402120505,0.047719071298903196,0.0,0.0,0.0,0.0,0.0,0.0,0.0,0.0,0.0,0.08732791747150881,0.5608175149171676,-9.779976682012146,0.0,0.0,0.0,0.0,0.0,0.0,0.0,0.0,0.0
1710446124.7323723,503,1710446124,732259989,map,0.0014866926875728907,7.107932995589807e-05,0.00550452846773156,0.9999837422973084,0.0,0.0,0.0,0.0,0.0,0.0,0.0,0.0,0.0,0.058019917753970626,0.0019109342405470115,0.04855944807053352,0.0,0.0,0.0,0.0,0.0,0.0,0.0,0.0,0.0,0.10415027537497373,0.45588880329129383,-9.787457530237424,0.0,0.0,0.0,0.0,0.0,0.0,0.0,0.0,0.0
1710446124.749858,504,1710446124,749764204,map,0.0018439666094613105,8.840147663043458e-05,0.005754783954892341,0.9999817370502097,0.0,0.0,0.0,0.0,0.0,0.0,0.0,0.0,0.0,0.07146894348917394,0.0031633730891242814,0.05005129303043104,0.0,0.0,0.0,0.0,0.0,0.0,0.0,0.0,0.0,0.13468259950635542,0.29274427716856993,-9.800431318746883,0.0,0.0,0.0,0.0,0.0,0.0,0.0,0.0,0.0
1710446124.7658346,505,1710446124,765707493,map,0.0022394695608007114,9.235520477190994e-05,0.0060094323489304075,0.9999794312731868,0.0,0.0,0.0,0.0,0.0,0.0,0.0,0.0,0.0,0.07909993444031305,0.00044962329558863773,0.050936763740312425,0.0,0.0,0.0,0.0,0.0,0.0,0.0,0.0,0.0,0.0824166788296419,0.04979016139237375,-9.813283104004862,0.0,0.0,0.0,0.0,0.0,0.0,0.0,0.0,0.0
1710446124.782412,506,1710446124,782283068,map,0.002653397739461879,0.00010791449072199973,0.0062728517725535535,0.9999767993136334,0.0,0.0,0.0,0.0,0.0,0.0,0.0,0.0,0.0,0.0827982263689359,0.0027541427399924313,0.05268550611424858,0.0,0.0,0.0,0.0,0.0,0.0,0.0,0.0,0.0,0.16457810934759692,-0.0835650386178708,-9.823861996627448,0.0,0.0,0.0,0.0,0.0,0.0,0.0,0.0,0.0
1710446124.7992938,507,1710446124,799160957,map,0.00306139909514637,0.00011993123368053772,0.006541751353837557,0.9999739091302853,0.0,0.0,0.0,0.0,0.0,0.0,0.0,0.0,0.0,0.08160863621825139,0.0020561347076947707,0.05378388941305194,0.0,0.0,0.0,0.0,0.0,0.0,0.0,0.0,0.0,0.04665248758430652,-0.2700612111733092,-9.835936593233825,0.0,0.0,0.0,0.0,0.0,0.0,0.0,0.0,0.0
1710446124.8158846,508,1710446124,815783262,map,0.0034456332176677697,0.00013136942594746572,0.006818531063829595,0.9999708085678976,0.0,0.0,0.0,0.0,0.0,0.0,0.0,0.0,0.0,0.07685450214210003,0.001975680502208727,0.055360012892904195,0.0,0.0,0.0,0.0,0.0,0.0,0.0,0.0,0.0,0.13720922341634426,-0.45712877920496486,-9.844239799253428,0.0,0.0,0.0,0.0,0.0,0.0,0.0,0.0,0.0
1710446124.8329206,509,1710446124,832818985,map,0.003793519173965479,0.0001430680928178117,0.007103514270228856,0.9999675638883545,0.0,0.0,0.0,0.0,0.0,0.0,0.0,0.0,0.0,0.06958527311778555,0.00208155753426619,0.05699976070456043,0.0,0.0,0.0,0.0,0.0,0.0,0.0,0.0,0.0,0.12299596444487065,-0.6411370691396384,-9.848984887545715,0.0,0.0,0.0,0.0,0.0,0.0,0.0,0.0,0.0
1710446124.8493202,510,1710446124,849229097,map,0.0040936289094916645,0.0001531045035415435,0.007397377429281025,0.999964248145168,0.0,0.0,0.0,0.0,0.0,0.0,0.0,0.0,0.0,0.060027834345325576,0.0018215413594110817,0.058775865482744355,0.0,0.0,0.0,0.0,0.0,0.0,0.0,0.0,0.0,0.12702943819569065,-0.797261213268785,-9.851590727985718,0.0,0.0,0.0,0.0,0.0,0.0,0.0,0.0,0.0
1710446124.8670266,511,1710446124,866764784,map,0.004337065292189556,0.0001615829961976938,0.00770142600508673,0.9999609251331147,0.0,0.0,0.0,0.0,0.0,0.0,0.0,0.0,0.0,0.048691006435332196,0.00159931915831605,0.06081258347560264,0.0,0.0,0.0,0.0,0.0,0.0,0.0,0.0,0.0,0.13595209920825943,-0.9256034824477717,-9.846875907675669,0.0,0.0,0.0,0.0,0.0,0.0,0.0,0.0,0.0
1710446124.88341,512,1710446124,883309364,map,0.004512596969452012,0.0001704524946989326,0.00802008451840445,0.9999576419323251,0.0,0.0,0.0,0.0,0.0,0.0,0.0,0.0,0.0,0.03511060635860937,0.0017911646509986895,0.0637319361082413,0.0,0.0,0.0,0.0,0.0,0.0,0.0,0.0,0.0,0.1390521140257464,-1.013003750901491,-9.83974477106055,0.0,0.0,0.0,0.0,0.0,0.0,0.0,0.0,0.0
1710446124.8997583,513,1710446124,899683952,map,0.004591241664406256,0.0001743583923098897,0.00835248023487952,0.9999545620542246,0.0,0.0,0.0,0.0,0.0,0.0,0.0,0.0,0.0,0.01572566765456988,0.0009603248833125125,0.06648034935381436,0.0,0.0,0.0,0.0,0.0,0.0,0.0,0.0,0.0,0.161993278006833,-1.0453950903004505,-9.826166088567609,0.0,0.0,0.0,0.0,0.0,0.0,0.0,0.0,0.0
1710446124.9174585,514,1710446124,917364120,map,0.004528764918882141,0.00017626245620202473,0.008697861418830825,0.9999519020565913,0.0,0.0,0.0,0.0,0.0,0.0,0.0,0.0,0.0,-0.012501478480415011,0.0007980835209620091,0.06907366594579935,0.0,0.0,0.0,0.0,0.0,0.0,0.0,0.0,0.0,0.1762275633579445,-1.0892569181256901,-9.806336369250756,0.0,0.0,0.0,0.0,0.0,0.0,0.0,0.0,0.0
1710446124.933436,515,1710446124,933296919,map,0.004293967222548903,0.00017900650749746373,0.009058374368711349,0.9999497365647727,0.0,0.0,0.0,0.0,0.0,0.0,0.0,0.0,0.0,-0.046963714871180506,0.0012669149230382498,0.07209242742833612,0.0,0.0,0.0,0.0,0.0,0.0,0.0,0.0,0.0,0.07219439633419811,-0.997610313698532,-9.78002557644499,0.0,0.0,0.0,0.0,0.0,0.0,0.0,0.0,0.0
1710446124.9504461,516,1710446124,950358391,map,0.003895901421537379,0.0001701279955770937,0.009444264437607456,0.9999477980763852,0.0,0.0,0.0,0.0,0.0,0.0,0.0,0.0,0.0,-0.07963711136689113,-0.0007537064430560268,0.07717072791014178,0.0,0.0,0.0,0.0,0.0,0.0,0.0,0.0,0.0,-0.018649448999032005,-0.8037023563042095,-9.755425157466266,0.0,0.0,0.0,0.0,0.0,0.0,0.0,0.0,0.0
1710446124.9668076,517,1710446124,966677189,map,0.0033625290147688723,0.0001648955529950967,0.009861141545867551,0.999945710574076,0.0,0.0,0.0,0.0,0.0,0.0,0.0,0.0,0.0,-0.10669146897406064,0.00024145205137355788,0.08336108405919848,0.0,0.0,0.0,0.0,0.0,0.0,0.0,0.0,0.0,-0.049859299357329245,-0.591447577892033,-9.73664457297989,0.0,0.0,0.0,0.0,0.0,0.0,0.0,0.0,0.0
1710446124.9831522,518,1710446124,983026266,map,0.0027418062619636438,0.0001688616790312102,0.010284952086371766,0.9999433352669221,0.0,0.0,0.0,0.0,0.0,0.0,0.0,0.0,0.0,-0.1241433406091212,0.0022498833283320766,0.0847404683411645,0.0,0.0,0.0,0.0,0.0,0.0,0.0,0.0,0.0,-0.15378604072673424,-0.3289838048832733,-9.724196050377564,0.0,0.0,0.0,0.0,0.0,0.0,0.0,0.0,0.0
1710446125.0007243,519,1710446125,522614,map,0.0020943471490144864,0.00016550167706314104,0.010719922980771355,0.9999403330051753,0.0,0.0,0.0,0.0,0.0,0.0,0.0,0.0,0.0,-0.12950482765607335,0.0008421586772625014,0.08697596758414941,0.0,0.0,0.0,0.0,0.0,0.0,0.0,0.0,0.0,0.024055620764301476,-0.03162634525173939,-9.719770871374463,0.0,0.0,0.0,0.0,0.0,0.0,0.0,0.0,0.0
1710446125.0166285,520,1710446125,16484499,map,0.0014795699413932435,0.0001587737188149397,0.011166830512783792,0.9999365417665231,0.0,0.0,0.0,0.0,0.0,0.0,0.0,0.0,0.0,-0.122975801450127,0.00010493312798199202,0.08936685482689913,0.0,0.0,0.0,0.0,0.0,0.0,0.0,0.0,0.0,0.1418782690876008,0.2571304672270512,-9.72438138356111,0.0,0.0,0.0,0.0,0.0,0.0,0.0,0.0,0.0
1710446125.033853,521,1710446125,33730268,map,0.0009440742804845237,0.0001585227208704923,0.011624853584488172,0.9999319708727386,0.0,0.0,0.0,0.0,0.0,0.0,0.0,0.0,0.0,-0.10710666898813236,0.0012323913703871237,0.09159275582357683,0.0,0.0,0.0,0.0,0.0,0.0,0.0,0.0,0.0,0.13441340432145296,0.5400377893211649,-9.734631053669206,0.0,0.0,0.0,0.0,0.0,0.0,0.0,0.0,0.0
1710446125.0501592,522,1710446125,50048351,map,0.0005023182264680313,0.00015866174061952254,0.012093553446126724,0.9999267315498157,0.0,0.0,0.0,0.0,0.0,0.0,0.0,0.0,0.0,-0.08835927688692635,0.0011021252201076275,0.09373224412334004,0.0,0.0,0.0,0.0,0.0,0.0,0.0,0.0,0.0,0.0812907526366614,0.8285352130138354,-9.748745712278382,0.0,0.0,0.0,0.0,0.0,0.0,0.0,0.0,0.0
1710446125.0669935,523,1710446125,66838026,map,0.00017865003488560773,0.00014997810313307927,0.01257378329296846,0.9999209196553671,0.0,0.0,0.0,0.0,0.0,0.0,0.0,0.0,0.0,-0.06476411244648461,-0.0009364114188176989,0.09604329665714581,0.0,0.0,0.0,0.0,0.0,0.0,0.0,0.0,0.0,0.11727999742576632,1.1550209052804241,-9.76398401152046,0.0,0.0,0.0,0.0,0.0,0.0,0.0,0.0,0.0
1710446125.0832765,524,1710446125,83162546,map,-3.16277142635313e-06,0.00014745644703107125,0.01306530072884681,0.9999146344380895,0.0,0.0,0.0,0.0,0.0,0.0,0.0,0.0,0.0,-0.03638052724089334,-4.720807599660268e-05,0.09830615260248898,0.0,0.0,0.0,0.0,0.0,0.0,0.0,0.0,0.0,0.1870933235561445,1.2554869157915631,-9.787149728141133,0.0,0.0,0.0,0.0,0.0,0.0,0.0,0.0,0.0
1710446125.100584,525,1710446125,100440741,map,-5.264952967317943e-05,0.00015468139289548938,0.013567298205170174,0.9999079466236408,0.0,0.0,0.0,0.0,0.0,0.0,0.0,0.0,0.0,-0.009893225311328564,0.0015690908410654456,0.10040702736912495,0.0,0.0,0.0,0.0,0.0,0.0,0.0,0.0,0.0,0.07868567799116058,1.290787823190746,-9.814403950670174,0.0,0.0,0.0,0.0,0.0,0.0,0.0,0.0,0.0
1710446125.116536,526,1710446125,116425753,map,-5.0552190002189595e-06,0.00016937492400951042,0.014077667328505317,0.9999008903732249,0.0,0.0,0.0,0.0,0.0,0.0,0.0,0.0,0.0,0.00954056043200358,0.0028090047321220647,0.10208507295151696,0.0,0.0,0.0,0.0,0.0,0.0,0.0,0.0,0.0,0.051254897083039624,1.3490035722039806,-9.8381936533862,0.0,0.0,0.0,0.0,0.0,0.0,0.0,0.0,0.0
1710446125.1336076,527,1710446125,133409977,map,9.41120141535085e-05,0.00018128378298310087,0.01459790383461407,0.9998934240621619,0.0,0.0,0.0,0.0,0.0,0.0,0.0,0.0,0.0,0.01984628381984726,0.002112380448062024,0.10406117770898808,0.0,0.0,0.0,0.0,0.0,0.0,0.0,0.0,0.0,0.06122556879068351,1.37550732339651,-9.857331865724246,0.0,0.0,0.0,0.0,0.0,0.0,0.0,0.0,0.0
1710446125.1500201,528,1710446125,149910212,map,0.0002055019255019837,0.00017556316268497674,0.015126242215861471,0.9998855553226889,0.0,0.0,0.0,0.0,0.0,0.0,0.0,0.0,0.0,0.0222406663279257,-0.0014472319054668749,0.1056837008624131,0.0,0.0,0.0,0.0,0.0,0.0,0.0,0.0,0.0,0.09064252960004936,1.3303281689558768,-9.872227903936409,0.0,0.0,0.0,0.0,0.0,0.0,0.0,0.0,0.0
1710446125.1664505,529,1710446125,166358232,map,0.0003272369698114596,0.00016237470353354123,0.015658377667392347,0.9998773333560705,0.0,0.0,0.0,0.0,0.0,0.0,0.0,0.0,0.0,0.024287561880476077,-0.0029705830466880017,0.10644496683549895,0.0,0.0,0.0,0.0,0.0,0.0,0.0,0.0,0.0,0.18568981641013582,1.3002048327490254,-9.884329974557433,0.0,0.0,0.0,0.0,0.0,0.0,0.0,0.0,0.0
1710446125.1829922,530,1710446125,182857752,map,0.0004528053813850871,0.0001842411290617071,0.016198961737902695,0.9998686687065992,0.0,0.0,0.0,0.0,0.0,0.0,0.0,0.0,0.0,0.02515991743172261,0.004028774015736515,0.10813283269996805,0.0,0.0,0.0,0.0,0.0,0.0,0.0,0.0,0.0,0.11589915261291267,1.2131989939388366,-9.898918210673305,0.0,0.0,0.0,0.0,0.0,0.0,0.0,0.0,0.0
1710446125.19996,531,1710446125,199799776,map,0.0005561002496272068,0.00019223473110293468,0.016745353957312407,0.9998596136054126,0.0,0.0,0.0,0.0,0.0,0.0,0.0,0.0,0.0,0.02066212359908363,0.0013249637353621934,0.10929638031647454,0.0,0.0,0.0,0.0,0.0,0.0,0.0,0.0,0.0,-0.1157803435066738,1.1620147882376293,-9.90620953476365,0.0,0.0,0.0,0.0,0.0,0.0,0.0,0.0,0.0
1710446125.2158277,532,1710446125,215636015,map,0.0006354973304832853,0.00019713312571367067,0.01729630651761533,0.9998501863091903,0.0,0.0,0.0,0.0,0.0,0.0,0.0,0.0,0.0,0.015873028443936694,0.000784021245475083,0.11020906697141132,0.0,0.0,0.0,0.0,0.0,0.0,0.0,0.0,0.0,0.13083502487213233,1.132841983088347,-9.89954312809119,0.0,0.0,0.0,0.0,0.0,0.0,0.0,0.0,0.0
1710446125.232332,533,1710446125,232228994,map,0.0007001721145364437,0.00021895157506008828,0.0178553817106536,0.999840310831277,0.0,0.0,0.0,0.0,0.0,0.0,0.0,0.0,0.0,0.012985350910399164,0.004218018220631151,0.11183195806378511,0.0,0.0,0.0,0.0,0.0,0.0,0.0,0.0,0.0,0.09349155981680886,1.0533520626174704,-9.890042241297518,0.0,0.0,0.0,0.0,0.0,0.0,0.0,0.0,0.0
1710446125.249028,534,1710446125,248931885,map,0.0007614977977169128,0.0002358225855229442,0.01842161345256529,0.9998299898815881,0.0,0.0,0.0,0.0,0.0,0.0,0.0,0.0,0.0,0.012298241821394064,0.0032413738084422364,0.11326525098269513,0.0,0.0,0.0,0.0,0.0,0.0,0.0,0.0,0.0,-0.014266771590821119,0.9917125973595842,-9.878835637289455,0.0,0.0,0.0,0.0,0.0,0.0,0.0,0.0,0.0
1710446125.2660851,535,1710446125,265956640,map,0.0008421242228574901,0.0002510063929738909,0.018993655200466007,0.9998192181013076,0.0,0.0,0.0,0.0,0.0,0.0,0.0,0.0,0.0,0.01615152608909446,0.0028360627513201358,0.11442985353098166,0.0,0.0,0.0,0.0,0.0,0.0,0.0,0.0,0.0,0.10712255098554296,0.9247003033201067,-9.859890674376466,0.0,0.0,0.0,0.0,0.0,0.0,0.0,0.0,0.0
1710446125.2824497,536,1710446125,282204628,map,0.0009619854882417974,0.0002682882032609984,0.019575347262014944,0.9998078857385213,0.0,0.0,0.0,0.0,0.0,0.0,0.0,0.0,0.0,0.02400446821809587,0.00311292352316297,0.11636316932848438,0.0,0.0,0.0,0.0,0.0,0.0,0.0,0.0,0.0,0.12323591687538962,0.8383585265779078,-9.842459576236607,0.0,0.0,0.0,0.0,0.0,0.0,0.0,0.0,0.0
1710446125.2986863,537,1710446125,298522949,map,0.0011162795602449882,0.00028894464553332066,0.020167204480059864,0.9997959563302878,0.0,0.0,0.0,0.0,0.0,0.0,0.0,0.0,0.0,0.030902134205113674,0.0036592290987542252,0.11839915500355781,0.0,0.0,0.0,0.0,0.0,0.0,0.0,0.0,0.0,0.10771043923789878,0.7439090051321692,-9.822858496600963,0.0,0.0,0.0,0.0,0.0,0.0,0.0,0.0,0.0
1710446125.3160746,538,1710446125,315850735,map,0.0012969338268244972,0.00030974807186865934,0.020769390730624483,0.9997834037567634,0.0,0.0,0.0,0.0,0.0,0.0,0.0,0.0,0.0,0.036173238652431175,0.0035881344194613955,0.12046846134889345,0.0,0.0,0.0,0.0,0.0,0.0,0.0,0.0,0.0,0.09395225342217374,0.6641373304920235,-9.801104199275082,0.0,0.0,0.0,0.0,0.0,0.0,0.0,0.0,0.0
1710446125.3325336,539,1710446125,332308292,map,0.0014991239721244708,0.00033234149356725965,0.02138050416818892,0.999770231712248,0.0,0.0,0.0,0.0,0.0,0.0,0.0,0.0,0.0,0.04048632619035209,0.0038619125719568446,0.12225682314129754,0.0,0.0,0.0,0.0,0.0,0.0,0.0,0.0,0.0,0.11597552651737178,0.5708492555531561,-9.780757130292605,0.0,0.0,0.0,0.0,0.0,0.0,0.0,0.0,0.0
1710446125.3495843,540,1710446125,349450588,map,0.0017209165899780177,0.00035550581471355876,0.021995771221556853,0.9997565194136395,0.0,0.0,0.0,0.0,0.0,0.0,0.0,0.0,0.0,0.04440821080502204,0.003896107921100149,0.12309071474649665,0.0,0.0,0.0,0.0,0.0,0.0,0.0,0.0,0.0,0.13517050223604718,0.46899042400349944,-9.76556679416084,0.0,0.0,0.0,0.0,0.0,0.0,0.0,0.0,0.0
1710446125.3659928,541,1710446125,365867138,map,0.0019548350619983815,0.00038489364786534885,0.022616501813757593,0.9997422289382741,0.0,0.0,0.0,0.0,0.0,0.0,0.0,0.0,0.0,0.046859217434092826,0.005090850268784778,0.12418409301166043,0.0,0.0,0.0,0.0,0.0,0.0,0.0,0.0,0.0,0.1748658167960526,0.344549573134139,-9.75549547231731,0.0,0.0,0.0,0.0,0.0,0.0,0.0,0.0,0.0
1710446125.3827736,542,1710446125,382496357,map,0.0021890626688774012,0.00041125746383544363,0.02324275068714404,0.9997273695425296,0.0,0.0,0.0,0.0,0.0,0.0,0.0,0.0,0.0,0.046907497654573325,0.004487295246351302,0.12529138481515797,0.0,0.0,0.0,0.0,0.0,0.0,0.0,0.0,0.0,0.15706492722296503,0.22159646726081164,-9.749539199074265,0.0,0.0,0.0,0.0,0.0,0.0,0.0,0.0,0.0
1710446125.3989074,543,1710446125,398746967,map,0.0024122375045851404,0.00043440079659361105,0.02387585020668772,0.9997119265983962,0.0,0.0,0.0,0.0,0.0,0.0,0.0,0.0,0.0,0.04468261043094557,0.003896713720346997,0.12666453586483212,0.0,0.0,0.0,0.0,0.0,0.0,0.0,0.0,0.0,0.21208978061970202,0.10774452891669145,-9.747898208775736,0.0,0.0,0.0,0.0,0.0,0.0,0.0,0.0,0.0
1710446125.4159188,544,1710446125,415796518,map,0.0026183913254867147,0.00045892740477401485,0.024517087825492112,0.9996958766630284,0.0,0.0,0.0,0.0,0.0,0.0,0.0,0.0,0.0,0.04128531610813215,0.0042567308341472584,0.12829243096538584,0.0,0.0,0.0,0.0,0.0,0.0,0.0,0.0,0.0,0.20312973301020323,-0.0011875817453799126,-9.749994150130355,0.0,0.0,0.0,0.0,0.0,0.0,0.0,0.0,0.0
1710446125.4326031,545,1710446125,432515144,map,0.0028080008813808136,0.0004826775965896056,0.02516687279003637,0.9996792038786033,0.0,0.0,0.0,0.0,0.0,0.0,0.0,0.0,0.0,0.037973213406772774,0.004185351714702554,0.13000340639405975,0.0,0.0,0.0,0.0,0.0,0.0,0.0,0.0,0.0,0.1811756670015547,-0.10869756290356097,-9.759296665225056,0.0,0.0,0.0,0.0,0.0,0.0,0.0,0.0,0.0
1710446125.4491115,546,1710446125,448992491,map,0.0029840879309885036,0.0005053118830987801,0.02582612275681258,0.999661868464768,0.0,0.0,0.0,0.0,0.0,0.0,0.0,0.0,0.0,0.035263480983221865,0.004034258355502732,0.13189853958357065,0.0,0.0,0.0,0.0,0.0,0.0,0.0,0.0,0.0,0.20436656571033424,-0.20341690594864803,-9.771467188052064,0.0,0.0,0.0,0.0,0.0,0.0,0.0,0.0,0.0
1710446125.4664004,547,1710446125,466288090,map,0.003152407893813677,0.0005278873455789573,0.026496253625441567,0.9996438026633476,0.0,0.0,0.0,0.0,0.0,0.0,0.0,0.0,0.0,0.03370955427226262,0.0040685264122521285,0.13407703278742833,0.0,0.0,0.0,0.0,0.0,0.0,0.0,0.0,0.0,0.21105580433670337,-0.3008049537045391,-9.784853552442481,0.0,0.0,0.0,0.0,0.0,0.0,0.0,0.0,0.0
1710446125.4826462,548,1710446125,482517481,map,0.0033208730486838822,0.00054958787243282,0.027178535544251772,0.9996249281410677,0.0,0.0,0.0,0.0,0.0,0.0,0.0,0.0,0.0,0.03373323794814632,0.003901005044632421,0.1365112581296444,0.0,0.0,0.0,0.0,0.0,0.0,0.0,0.0,0.0,0.21576948595943973,-0.3910882329144516,-9.800040628945387,0.0,0.0,0.0,0.0,0.0,0.0,0.0,0.0,0.0
1710446125.499575,549,1710446125,499489069,map,0.0034957976505642593,0.0005710672925165088,0.027874385157023437,0.9996051580164299,0.0,0.0,0.0,0.0,0.0,0.0,0.0,0.0,0.0,0.035022539994018165,0.003832154416446572,0.13922949198942675,0.0,0.0,0.0,0.0,0.0,0.0,0.0,0.0,0.0,0.23247845443533624,-0.4743360688992408,-9.815444237936608,0.0,0.0,0.0,0.0,0.0,0.0,0.0,0.0,0.0
1710446125.51604,550,1710446125,515912533,map,0.003679692843759314,0.0005904539879223691,0.028585509231351735,0.9995844035831333,0.0,0.0,0.0,0.0,0.0,0.0,0.0,0.0,0.0,0.03680349328946132,0.0033763596417817426,0.14229120398866427,0.0,0.0,0.0,0.0,0.0,0.0,0.0,0.0,0.0,0.235835750285072,-0.5624833016780686,-9.82871791230085,0.0,0.0,0.0,0.0,0.0,0.0,0.0,0.0,0.0
1710446125.53306,551,1710446125,532938957,map,0.0038723274259524214,0.0006073435525671138,0.029314901069660462,0.9995625407093803,0.0,0.0,0.0,0.0,0.0,0.0,0.0,0.0,0.0,0.038535355434689215,0.002842689412987165,0.1459525200586051,0.0,0.0,0.0,0.0,0.0,0.0,0.0,0.0,0.0,0.25140940749260615,-0.634069902740824,-9.838388765456315,0.0,0.0,0.0,0.0,0.0,0.0,0.0,0.0,0.0
1710446125.5499527,552,1710446125,549829960,map,0.004048615741848878,0.0006241117444936419,0.030064519849749706,0.999539565920884,0.0,0.0,0.0,0.0,0.0,0.0,0.0,0.0,0.0,0.035265102718947686,0.0029283908215945948,0.15000079839753117,0.0,0.0,0.0,0.0,0.0,0.0,0.0,0.0,0.0,0.25789340227836416,-0.7127608648959509,-9.844841433608053,0.0,0.0,0.0,0.0,0.0,0.0,0.0,0.0,0.0
1710446125.566271,553,1710446125,566182137,map,0.0041696877371382845,0.0006421018209517907,0.03083582116355768,0.9995155594299648,0.0,0.0,0.0,0.0,0.0,0.0,0.0,0.0,0.0,0.02423188066561246,0.003514601488432545,0.15433372096023684,0.0,0.0,0.0,0.0,0.0,0.0,0.0,0.0,0.0,0.23740141987395713,-0.7273882165580997,-9.843580888563185,0.0,0.0,0.0,0.0,0.0,0.0,0.0,0.0,0.0
1710446125.5836263,554,1710446125,583492756,map,0.004206009579862303,0.0006546921790185403,0.031626063392484145,0.999490706798147,0.0,0.0,0.0,0.0,0.0,0.0,0.0,0.0,0.0,0.0072554000246926815,0.002960790256195121,0.15811922504478407,0.0,0.0,0.0,0.0,0.0,0.0,0.0,0.0,0.0,0.26659370821781536,-0.7110451068605292,-9.836371520855513,0.0,0.0,0.0,0.0,0.0,0.0,0.0,0.0,0.0
1710446125.600386,555,1710446125,600222588,map,0.004120022322083929,0.0006593105339379681,0.03243762089720194,0.9994650526537758,0.0,0.0,0.0,0.0,0.0,0.0,0.0,0.0,0.0,-0.017245907113008333,0.002139130192426356,0.1623761636202308,0.0,0.0,0.0,0.0,0.0,0.0,0.0,0.0,0.0,0.2765154163710203,-0.7166247474515232,-9.824517647688836,0.0,0.0,0.0,0.0,0.0,0.0,0.0,0.0,0.0
1710446125.616658,556,1710446125,616454363,map,0.0038847738994246435,0.0006525264803411205,0.03328797763371611,0.9994380387427727,0.0,0.0,0.0,0.0,0.0,0.0,0.0,0.0,0.0,-0.04715912453416713,0.0008342391150770199,0.17013041318446834,0.0,0.0,0.0,0.0,0.0,0.0,0.0,0.0,0.0,0.129060784511175,-0.6032737442134312,-9.808456990652433,0.0,0.0,0.0,0.0,0.0,0.0,0.0,0.0,0.0
1710446125.6325226,557,1710446125,632350683,map,0.0034988151023964955,0.0006397756702203243,0.03418397258371365,0.9994092279934016,0.0,0.0,0.0,0.0,0.0,0.0,0.0,0.0,0.0,-0.07732843462986151,0.0006514308844775919,0.17924992382892954,0.0,0.0,0.0,0.0,0.0,0.0,0.0,0.0,0.0,-0.08110909335678908,-0.40960871648039243,-9.790321812679608,0.0,0.0,0.0,0.0,0.0,0.0,0.0,0.0,0.0
1710446125.6490228,558,1710446125,648932219,map,0.002971395991337177,0.0006283311238976682,0.035106355129462724,0.9993789670767469,0.0,0.0,0.0,0.0,0.0,0.0,0.0,0.0,0.0,-0.1055983727040826,0.0018701984228326094,0.18451597510028583,0.0,0.0,0.0,0.0,0.0,0.0,0.0,0.0,0.0,-0.21020560691087883,-0.09599170424456065,-9.773464874879728,0.0,0.0,0.0,0.0,0.0,0.0,0.0,0.0,0.0
1710446125.6667724,559,1710446125,666656494,map,0.00237006737420319,0.0006232819844837435,0.03603863257583703,0.9993473926829817,0.0,0.0,0.0,0.0,0.0,0.0,0.0,0.0,0.0,-0.1203283487683515,0.0036586928342130184,0.18649108258438293,0.0,0.0,0.0,0.0,0.0,0.0,0.0,0.0,0.0,-0.08529077562868637,0.3019260914081422,-9.759785609553507,0.0,0.0,0.0,0.0,0.0,0.0,0.0,0.0,0.0
1710446125.6826398,560,1710446125,682460546,map,0.0017498025353750522,0.0006095974778960886,0.036983511883750805,0.9993141580257665,0.0,0.0,0.0,0.0,0.0,0.0,0.0,0.0,0.0,-0.12417469571419591,0.0020702547972802055,0.18902259748208772,0.0,0.0,0.0,0.0,0.0,0.0,0.0,0.0,0.0,0.10199995328835433,0.40992516241391813,-9.76005243345846,0.0,0.0,0.0,0.0,0.0,0.0,0.0,0.0,0.0
1710446125.6991782,561,1710446125,698985577,map,0.0011715740460009772,0.0005773760156434289,0.0379426607115506,0.9992790644005904,0.0,0.0,0.0,0.0,0.0,0.0,0.0,0.0,0.0,-0.11590757737205684,-0.0019341588974067104,0.19189749743001794,0.0,0.0,0.0,0.0,0.0,0.0,0.0,0.0,0.0,0.23625668078396403,0.7132764319520462,-9.76278167413374,0.0,0.0,0.0,0.0,0.0,0.0,0.0,0.0,0.0
1710446125.7158391,562,1710446125,715710163,map,0.0007037073892565237,0.0005381139159154903,0.03891170311727537,0.9992422602101239,0.0,0.0,0.0,0.0,0.0,0.0,0.0,0.0,0.0,-0.09390310757775133,-0.004156068812568463,0.19390132064021,0.0,0.0,0.0,0.0,0.0,0.0,0.0,0.0,0.0,0.35496070946695174,0.9707163674696025,-9.770748672719876,0.0,0.0,0.0,0.0,0.0,0.0,0.0,0.0,0.0
1710446125.733126,563,1710446125,732954979,map,0.0003958456647960158,0.0005197147238803967,0.0399082532634827,0.9992031347650353,0.0,0.0,0.0,0.0,0.0,0.0,0.0,0.0,0.0,-0.061769459582543554,-0.001198293380482215,0.19943262071251527,0.0,0.0,0.0,0.0,0.0,0.0,0.0,0.0,0.0,0.3679493336532814,1.1273838509837386,-9.783192538709548,0.0,0.0,0.0,0.0,0.0,0.0,0.0,0.0,0.0
1710446125.7496946,564,1710446125,749584436,map,0.00025859850134194796,0.0005281455155012296,0.04092194530721785,0.9991621733139234,0.0,0.0,0.0,0.0,0.0,0.0,0.0,0.0,0.0,-0.027465282940372746,0.0028369238021768444,0.20288928653434296,0.0,0.0,0.0,0.0,0.0,0.0,0.0,0.0,0.0,0.08501470034406547,1.2299327643340723,-9.797152132117414,0.0,0.0,0.0,0.0,0.0,0.0,0.0,0.0,0.0
1710446125.7668834,565,1710446125,766745567,map,0.0002673305723925496,0.0005430915936278517,0.04194882379405907,0.9991195773120357,0.0,0.0,0.0,0.0,0.0,0.0,0.0,0.0,0.0,0.0017579540193452523,0.0029746620683305776,0.20555240980579892,0.0,0.0,0.0,0.0,0.0,0.0,0.0,0.0,0.0,0.09842947007165945,1.3539394069920203,-9.807513560929157,0.0,0.0,0.0,0.0,0.0,0.0,0.0,0.0,0.0
1710446125.7825887,566,1710446125,782389879,map,0.00039415435254649007,0.00057228435251406,0.04298434915559519,0.9990755040839687,0.0,0.0,0.0,0.0,0.0,0.0,0.0,0.0,0.0,0.025472204575093298,0.0048559474897510654,0.20730413128551778,0.0,0.0,0.0,0.0,0.0,0.0,0.0,0.0,0.0,0.2163668729740097,1.4012872041523015,-9.814868680612834,0.0,0.0,0.0,0.0,0.0,0.0,0.0,0.0,0.0
1710446125.7993214,567,1710446125,799146891,map,0.0006180331559319269,0.0006315685335520534,0.044029782926458996,0.9990298280690395,0.0,0.0,0.0,0.0,0.0,0.0,0.0,0.0,0.0,0.04511746887541183,0.010056080351638307,0.20930485139345578,0.0,0.0,0.0,0.0,0.0,0.0,0.0,0.0,0.0,0.16001193911828204,1.354565313940094,-9.825209154667643,0.0,0.0,0.0,0.0,0.0,0.0,0.0,0.0,0.0
1710446125.8164601,568,1710446125,816350460,map,0.0009197370422992722,0.0006879109160815563,0.04508617366032815,0.9989824411905424,0.0,0.0,0.0,0.0,0.0,0.0,0.0,0.0,0.0,0.0606415321527909,0.008801454826188347,0.21151898317679818,0.0,0.0,0.0,0.0,0.0,0.0,0.0,0.0,0.0,0.1547839891978228,1.113689131524278,-9.837949646883242,0.0,0.0,0.0,0.0,0.0,0.0,0.0,0.0,0.0
1710446125.8326268,569,1710446125,832529068,map,0.0012563729157128267,0.0007393265478300814,0.04616363474146276,0.9989328274467754,0.0,0.0,0.0,0.0,0.0,0.0,0.0,0.0,0.0,0.0675751126202476,0.007515063140733096,0.21575469148402168,0.0,0.0,0.0,0.0,0.0,0.0,0.0,0.0,0.0,0.28906740126671504,1.0484244933168878,-9.851682928916226,0.0,0.0,0.0,0.0,0.0,0.0,0.0,0.0,0.0
1710446125.849648,570,1710446125,849542856,map,0.0016010181000760998,0.0007865365330939996,0.047247222442631895,0.998881633664761,0.0,0.0,0.0,0.0,0.0,0.0,0.0,0.0,0.0,0.06913686933799629,0.0066047700802166365,0.21699579432453833,0.0,0.0,0.0,0.0,0.0,0.0,0.0,0.0,0.0,0.23428325199783234,0.8703952067157668,-9.858837814255871,0.0,0.0,0.0,0.0,0.0,0.0,0.0,0.0,0.0
1710446125.8668573,571,1710446125,866741896,map,0.0019403138629891848,0.0008272617705251528,0.04834106531634915,0.99882866009349,0.0,0.0,0.0,0.0,0.0,0.0,0.0,0.0,0.0,0.06800715302275404,0.005362860222767048,0.21906304847182304,0.0,0.0,0.0,0.0,0.0,0.0,0.0,0.0,0.0,0.25060305680427153,0.7167078243316161,-9.867350102183543,0.0,0.0,0.0,0.0,0.0,0.0,0.0,0.0,0.0
1710446125.8828669,572,1710446125,882733583,map,0.002251908452939806,0.0008686944951956317,0.04944617521200841,0.9987738733242361,0.0,0.0,0.0,0.0,0.0,0.0,0.0,0.0,0.0,0.06247857198764592,0.005771336919671543,0.22132650612853128,0.0,0.0,0.0,0.0,0.0,0.0,0.0,0.0,0.0,0.2844376187072428,0.5472192955694659,-9.873387866147997,0.0,0.0,0.0,0.0,0.0,0.0,0.0,0.0,0.0
1710446125.9001002,573,1710446125,899878025,map,0.00252154112387635,0.0009144524206138154,0.05055989634368441,0.9987174287499176,0.0,0.0,0.0,0.0,0.0,0.0,0.0,0.0,0.0,0.05413702575196369,0.007045691392761678,0.22305369189857316,0.0,0.0,0.0,0.0,0.0,0.0,0.0,0.0,0.0,0.2487632218695485,0.3985223112864067,-9.87320951788343,0.0,0.0,0.0,0.0,0.0,0.0,0.0,0.0,0.0
1710446125.9158292,574,1710446125,915700912,map,0.002726391141200062,0.0009601169213056495,0.05168256883725349,0.9986593798914749,0.0,0.0,0.0,0.0,0.0,0.0,0.0,0.0,0.0,0.041194563689047205,0.007672854223908129,0.22484641411023046,0.0,0.0,0.0,0.0,0.0,0.0,0.0,0.0,0.0,0.23228146516824633,0.25594090642129425,-9.867603887573072,0.0,0.0,0.0,0.0,0.0,0.0,0.0,0.0,0.0
1710446125.933733,575,1710446125,933609486,map,0.0028524774366555533,0.0010029530288068551,0.05281352440948834,0.9985998142885587,0.0,0.0,0.0,0.0,0.0,0.0,0.0,0.0,0.0,0.02543259714719687,0.00790937481174001,0.22650347733364834,0.0,0.0,0.0,0.0,0.0,0.0,0.0,0.0,0.0,0.2581479880231923,0.1711788855212525,-9.855234993047095,0.0,0.0,0.0,0.0,0.0,0.0,0.0,0.0,0.0
1710446125.9496944,576,1710446125,949559927,map,0.0028993675461913273,0.001039842675281806,0.053949489886717404,0.9985389150834362,0.0,0.0,0.0,0.0,0.0,0.0,0.0,0.0,0.0,0.009552849368688101,0.00754346297717476,0.2275062927681456,0.0,0.0,0.0,0.0,0.0,0.0,0.0,0.0,0.0,0.27046159618786403,0.11330612513365934,-9.837449061023163,0.0,0.0,0.0,0.0,0.0,0.0,0.0,0.0,0.0
1710446125.9663234,577,1710446125,966181755,map,0.002881989089204146,0.0010720582980233628,0.05509471542415632,0.9984763978994329,0.0,0.0,0.0,0.0,0.0,0.0,0.0,0.0,0.0,-0.003333296274123148,0.007294492060584075,0.22936288404834226,0.0,0.0,0.0,0.0,0.0,0.0,0.0,0.0,0.0,0.26821474420353586,0.0818548685176314,-9.820086415089287,0.0,0.0,0.0,0.0,0.0,0.0,0.0,0.0,0.0
1710446125.983008,578,1710446125,982800007,map,0.0028217063748988674,0.0011012977300742164,0.05625314916104082,0.9984119432007558,0.0,0.0,0.0,0.0,0.0,0.0,0.0,0.0,0.0,-0.011935542845762226,0.007170925610314216,0.2320146733027307,0.0,0.0,0.0,0.0,0.0,0.0,0.0,0.0,0.0,0.27542458121045155,0.091617427838511,-9.802049025982152,0.0,0.0,0.0,0.0,0.0,0.0,0.0,0.0,0.0
1710446125.999817,579,1710446125,999669790,map,0.002754170515833418,0.0011319044559408638,0.05742573507864016,0.9983453401943388,0.0,0.0,0.0,0.0,0.0,0.0,0.0,0.0,0.0,-0.013370917473097148,0.007532157240625757,0.23486249285653732,0.0,0.0,0.0,0.0,0.0,0.0,0.0,0.0,0.0,0.2948821826067368,0.17447704784727708,-9.786015842960396,0.0,0.0,0.0,0.0,0.0,0.0,0.0,0.0,0.0
1710446126.0160859,580,1710446126,15925646,map,0.0027182028763920903,0.001166062126046252,0.058612095628796324,0.9982764516496629,0.0,0.0,0.0,0.0,0.0,0.0,0.0,0.0,0.0,-0.007029327232615944,0.007894059874614948,0.23764407657688655,0.0,0.0,0.0,0.0,0.0,0.0,0.0,0.0,0.0,0.30301201711654396,0.19475581014291726,-9.773856030342488,0.0,0.0,0.0,0.0,0.0,0.0,0.0,0.0,0.0
1710446126.0333738,581,1710446126,33225298,map,0.0027298444955703703,0.0012066794716780805,0.05981500871071885,0.9982050173219024,0.0,0.0,0.0,0.0,0.0,0.0,0.0,0.0,0.0,0.0025483279317415094,0.008646688563279915,0.24098592586064022,0.0,0.0,0.0,0.0,0.0,0.0,0.0,0.0,0.0,0.3095381069530794,0.11507656926391177,-9.767525831103494,0.0,0.0,0.0,0.0,0.0,0.0,0.0,0.0,0.0
1710446126.0493126,582,1710446126,49158812,map,0.0028001817841733657,0.0012499579529646639,0.06103433897907302,0.9981309563641833,0.0,0.0,0.0,0.0,0.0,0.0,0.0,0.0,0.0,0.014295742161433832,0.008499773416731866,0.24430710995204893,0.0,0.0,0.0,0.0,0.0,0.0,0.0,0.0,0.0,0.3232273949104388,0.14520348524173932,-9.759980721623622,0.0,0.0,0.0,0.0,0.0,0.0,0.0,0.0,0.0
1710446126.0660863,583,1710446126,65890312,map,0.0029271806475806563,0.0013054211189123118,0.06227502796889578,0.9980538804997614,0.0,0.0,0.0,0.0,0.0,0.0,0.0,0.0,0.0,0.02574959084982413,0.010267758095304353,0.2486143042020815,0.0,0.0,0.0,0.0,0.0,0.0,0.0,0.0,0.0,0.3672191022109015,0.07015993136152951,-9.757966736651674,0.0,0.0,0.0,0.0,0.0,0.0,0.0,0.0,0.0
1710446126.0828106,584,1710446126,82634926,map,0.0031008683585112876,0.0013495534849956908,0.06353792638350855,0.997973694659182,0.0,0.0,0.0,0.0,0.0,0.0,0.0,0.0,0.0,0.03492742785025152,0.007450503676666604,0.25310512867075496,0.0,0.0,0.0,0.0,0.0,0.0,0.0,0.0,0.0,0.35754065659402545,-0.014619668251273147,-9.758721107901282,0.0,0.0,0.0,0.0,0.0,0.0,0.0,0.0,0.0
1710446126.0994954,585,1710446126,99339962,map,0.0033201168749845723,0.0013869470179931223,0.0648242000665325,0.9978902125422615,0.0,0.0,0.0,0.0,0.0,0.0,0.0,0.0,0.0,0.04393350285069034,0.005554320450420529,0.25782916074468737,0.0,0.0,0.0,0.0,0.0,0.0,0.0,0.0,0.0,0.49049276493361127,-0.12840964454329398,-9.76277189524717,0.0,0.0,0.0,0.0,0.0,0.0,0.0,0.0,0.0
1710446126.1166625,586,1710446126,116457224,map,0.003563102597749588,0.0014397966341268002,0.0661394793932577,0.9978029868421517,0.0,0.0,0.0,0.0,0.0,0.0,0.0,0.0,0.0,0.0488618998589173,0.008359346266688947,0.26366209111547023,0.0,0.0,0.0,0.0,0.0,0.0,0.0,0.0,0.0,0.34493599558669535,-0.27567760990042417,-9.773253464665332,0.0,0.0,0.0,0.0,0.0,0.0,0.0,0.0,0.0
1710446126.133697,587,1710446126,133476257,map,0.0038055071981097353,0.0014793112346443808,0.06748028496120947,0.997712253555498,0.0,0.0,0.0,0.0,0.0,0.0,0.0,0.0,0.0,0.04856801113936087,0.005725951293436822,0.2688125127967056,0.0,0.0,0.0,0.0,0.0,0.0,0.0,0.0,0.0,0.28239631615373106,-0.33719611964467716,-9.786586278010253,0.0,0.0,0.0,0.0,0.0,0.0,0.0,0.0,0.0
1710446126.1496127,588,1710446126,149434090,map,0.00401634372208467,0.0015195123511510206,0.06885008142394047,0.997617775680264,0.0,0.0,0.0,0.0,0.0,0.0,0.0,0.0,0.0,0.04227141176604972,0.0063049268437413855,0.27463816337074265,0.0,0.0,0.0,0.0,0.0,0.0,0.0,0.0,0.0,0.42244718673657017,-0.4120020407604947,-9.798480663707002,0.0,0.0,0.0,0.0,0.0,0.0,0.0,0.0,0.0
1710446126.1670403,589,1710446126,166859627,map,0.004161946626885852,0.0015556869895725497,0.07024734722774477,0.9975197081991564,0.0,0.0,0.0,0.0,0.0,0.0,0.0,0.0,0.0,0.029194532315823904,0.006405821891020691,0.28015218225335153,0.0,0.0,0.0,0.0,0.0,0.0,0.0,0.0,0.0,0.32936064853808555,-0.49472711376744993,-9.80830611640251,0.0,0.0,0.0,0.0,0.0,0.0,0.0,0.0,0.0
1710446126.1833448,590,1710446126,183220387,map,0.0042011888213449155,0.0015807216341473123,0.07167057183087566,0.9974182575354424,0.0,0.0,0.0,0.0,0.0,0.0,0.0,0.0,0.0,0.007814241309640235,0.005670575277450971,0.2853554928994132,0.0,0.0,0.0,0.0,0.0,0.0,0.0,0.0,0.0,0.3592334080525638,-0.5389633623537314,-9.81645099759195,0.0,0.0,0.0,0.0,0.0,0.0,0.0,0.0,0.0
1710446126.1996567,591,1710446126,199509382,map,0.004094921284963245,0.0015897633013522666,0.07312216279841878,0.9973133176589979,0.0,0.0,0.0,0.0,0.0,0.0,0.0,0.0,0.0,-0.021446411359164516,0.0045485703682421,0.291032286072182,0.0,0.0,0.0,0.0,0.0,0.0,0.0,0.0,0.0,0.3615982105801732,-0.45137588351949115,-9.817047044011392,0.0,0.0,0.0,0.0,0.0,0.0,0.0,0.0,0.0
1710446126.2157393,592,1710446126,215548992,map,0.003828074703166571,0.0015829697619329072,0.07461348020229,0.997203925294572,0.0,0.0,0.0,0.0,0.0,0.0,0.0,0.0,0.0,-0.05371548599615067,0.0037232734704805938,0.2989837842067714,0.0,0.0,0.0,0.0,0.0,0.0,0.0,0.0,0.0,0.22581545291087768,-0.3139094184065421,-9.814464020973384,0.0,0.0,0.0,0.0,0.0,0.0,0.0,0.0,0.0
1710446126.232974,593,1710446126,232797384,map,0.0033856483840202325,0.0015411284970915018,0.0761652645681652,0.9970882682998716,0.0,0.0,0.0,0.0,0.0,0.0,0.0,0.0,0.0,-0.08926406295996667,-0.0006568297264409341,0.31110683444523796,0.0,0.0,0.0,0.0,0.0,0.0,0.0,0.0,0.0,0.16423326398860993,-0.07087667136014417,-9.810628369132013,0.0,0.0,0.0,0.0,0.0,0.0,0.0,0.0,0.0
1710446126.2488534,594,1710446126,248763084,map,0.0027998541959890415,0.001516144069426334,0.07774090702497113,0.9969685117889013,0.0,0.0,0.0,0.0,0.0,0.0,0.0,0.0,0.0,-0.11761068237534043,0.004859180084210465,0.3158745833690081,0.0,0.0,0.0,0.0,0.0,0.0,0.0,0.0,0.0,0.035056835412607894,0.40597623846979053,-9.801387321324317,0.0,0.0,0.0,0.0,0.0,0.0,0.0,0.0,0.0
1710446126.2668252,595,1710446126,266687393,map,0.002120126086447154,0.0014949266669171146,0.07932780861358163,0.9968452081643394,0.0,0.0,0.0,0.0,0.0,0.0,0.0,0.0,0.0,-0.13628693739467282,0.0070471422068543645,0.3181461085296422,0.0,0.0,0.0,0.0,0.0,0.0,0.0,0.0,0.0,-0.032956899557447177,0.5151545820777457,-9.801103733613816,0.0,0.0,0.0,0.0,0.0,0.0,0.0,0.0,0.0
1710446126.2830043,596,1710446126,282880306,map,0.0013846196062109106,0.0014433266881252497,0.08092538166778551,0.9967181558688197,0.0,0.0,0.0,0.0,0.0,0.0,0.0,0.0,0.0,-0.14788284498237875,0.0018603326356819343,0.3203259389194506,0.0,0.0,0.0,0.0,0.0,0.0,0.0,0.0,0.0,0.21164536605923095,0.7899657637106684,-9.802304208355476,0.0,0.0,0.0,0.0,0.0,0.0,0.0,0.0,0.0
1710446126.2998624,597,1710446126,299697161,map,0.0006590262558843846,0.0013764799692732683,0.08253575746907431,0.9965869353580221,0.0,0.0,0.0,0.0,0.0,0.0,0.0,0.0,0.0,-0.1461509037428168,-0.0013338528617119613,0.32295028343528065,0.0,0.0,0.0,0.0,0.0,0.0,0.0,0.0,0.0,0.47653383727583504,1.2080888854222995,-9.800791274904874,0.0,0.0,0.0,0.0,0.0,0.0,0.0,0.0,0.0
1710446126.316665,598,1710446126,316448450,map,7.5437127501860704e-06,0.0013025535556315535,0.08416116121391287,0.9964513045003518,0.0,0.0,0.0,0.0,0.0,0.0,0.0,0.0,0.0,-0.13149545859586126,-0.00394349183092695,0.3260381220165464,0.0,0.0,0.0,0.0,0.0,0.0,0.0,0.0,0.0,0.4393203353692432,1.4865536235140313,-9.805633686401585,0.0,0.0,0.0,0.0,0.0,0.0,0.0,0.0,0.0
1710446126.3322701,599,1710446126,332163572,map,-0.0005111806114182609,0.001223752512616836,0.08580148252853578,0.9963113703657486,0.0,0.0,0.0,0.0,0.0,0.0,0.0,0.0,0.0,-0.10511866548414438,-0.007107055135895812,0.32911691104123936,0.0,0.0,0.0,0.0,0.0,0.0,0.0,0.0,0.0,0.4312015384866125,1.7500550353407796,-9.810897055682029,0.0,0.0,0.0,0.0,0.0,0.0,0.0,0.0,0.0
1710446126.3495998,600,1710446126,349498510,map,-0.0008604564286200438,0.0011573276241895272,0.08744963780405958,0.9961678980249482,0.0,0.0,0.0,0.0,0.0,0.0,0.0,0.0,0.0,-0.0711431247856044,-0.007493358959892283,0.330782426143872,0.0,0.0,0.0,0.0,0.0,0.0,0.0,0.0,0.0,0.45478206470712523,1.9607027294152983,-9.81648871615443,0.0,0.0,0.0,0.0,0.0,0.0,0.0,0.0,0.0
1710446126.3658268,601,1710446126,365701675,map,-0.001053571757635114,0.0011465897002464413,0.08912226291332033,0.9960194765022519,0.0,0.0,0.0,0.0,0.0,0.0,0.0,0.0,0.0,-0.03907715938376051,0.0009191205578078798,0.335792765849557,0.0,0.0,0.0,0.0,0.0,0.0,0.0,0.0,0.0,0.38492666126111547,2.0631602567423384,-9.821362792617174,0.0,0.0,0.0,0.0,0.0,0.0,0.0,0.0,0.0
1710446126.382713,602,1710446126,382580280,map,-0.0011143386831603099,0.0011729943126935853,0.09080722564051594,0.9958671749310317,0.0,0.0,0.0,0.0,0.0,0.0,0.0,0.0,0.0,-0.012063017088135267,0.006002519011086555,0.33835798392766686,0.0,0.0,0.0,0.0,0.0,0.0,0.0,0.0,0.0,0.0692623110652176,1.9418117832090698,-9.824038482246955,0.0,0.0,0.0,0.0,0.0,0.0,0.0,0.0,0.0
1710446126.3994162,603,1710446126,399307966,map,-0.0010463409480681214,0.0012234407892022193,0.09250473544815611,0.9957109431370745,0.0,0.0,0.0,0.0,0.0,0.0,0.0,0.0,0.0,0.01401200866018759,0.008494892747415154,0.3409630207018541,0.0,0.0,0.0,0.0,0.0,0.0,0.0,0.0,0.0,0.0968810881572445,2.1621017504789033,-9.82477189873963,0.0,0.0,0.0,0.0,0.0,0.0,0.0,0.0,0.0
1710446126.416168,604,1710446126,415960789,map,-0.0008718744784022516,0.0013119544736562997,0.09421579728038265,0.9955505522840992,0.0,0.0,0.0,0.0,0.0,0.0,0.0,0.0,0.0,0.03590472576114281,0.014141924938527142,0.3437708306778316,0.0,0.0,0.0,0.0,0.0,0.0,0.0,0.0,0.0,0.22515273689498233,2.1124200590574898,-9.827080647292442,0.0,0.0,0.0,0.0,0.0,0.0,0.0,0.0,0.0
1710446126.4327047,605,1710446126,432585001,map,-0.0006253980081152945,0.0014204424762780826,0.09593656629977118,0.9953862398421593,0.0,0.0,0.0,0.0,0.0,0.0,0.0,0.0,0.0,0.05061109924750892,0.016787249663921172,0.34579820231033676,0.0,0.0,0.0,0.0,0.0,0.0,0.0,0.0,0.0,0.1351543696197934,1.8844043639445467,-9.83040826269349,0.0,0.0,0.0,0.0,0.0,0.0,0.0,0.0,0.0
1710446126.449233,606,1710446126,449136972,map,-0.00034525991976124557,0.0015384336666086674,0.09767002288792172,0.9952176046707143,0.0,0.0,0.0,0.0,0.0,0.0,0.0,0.0,0.0,0.0574881571704622,0.018045528741410834,0.34841677023311607,0.0,0.0,0.0,0.0,0.0,0.0,0.0,0.0,0.0,0.17445529273504398,1.838777650820408,-9.834390597833394,0.0,0.0,0.0,0.0,0.0,0.0,0.0,0.0,0.0
1710446126.4669216,607,1710446126,466693878,map,-7.237495471424316e-05,0.0016300784031051659,0.09940831160246495,0.9950453885077871,0.0,0.0,0.0,0.0,0.0,0.0,0.0,0.0,0.0,0.05553690782456343,0.01294076719529941,0.3494460673497173,0.0,0.0,0.0,0.0,0.0,0.0,0.0,0.0,0.0,0.2807864742282683,1.7649284889815813,-9.838035794217301,0.0,0.0,0.0,0.0,0.0,0.0,0.0,0.0,0.0
1710446126.483447,608,1710446126,483262777,map,0.00019220263312867643,0.0016953377535612324,0.10115044851869492,0.9948696777229247,0.0,0.0,0.0,0.0,0.0,0.0,0.0,0.0,0.0,0.05336662840067537,0.007852506472161533,0.3502797809991053,0.0,0.0,0.0,0.0,0.0,0.0,0.0,0.0,0.0,0.44963269512516685,1.818805031702801,-9.839663746000406,0.0,0.0,0.0,0.0,0.0,0.0,0.0,0.0,0.0
